subject id,list,trial number,word,pic1,pic2,pic1type,pic2type,side clicked,chosenpic,response,trial type,datetesting,time,reaction time,,,,,,,,,,,,,,,,,,,,,,,,,,,,,,,,,,,,,,,,,,,,,,,,,,,,,,,,,,,,,,,,,,,,,sub,1,2,cookie,cookie,baby,familiar,familiar,L,cookie,Y,rec,7/8/14,11:37,878,,,,,,,,,,,,,,,,,,,,,,,,,,,,,,,,,,,,,,,,,,,,,,,,,,,,,,,,,,,,,,,,,,,,,sub,1,3,car,fep,car,novel,familiar,R,car,Y,MEcontrol,7/8/14,11:37,1123,,,,,,,,,,,,,,,,,,,,,,,,,,,,,,,,,,,,,,,,,,,,,,,,,,,,,,,,,,,,,,,,,,,,,sub,1,4,dax,dax,cup,novel,familiar,L,dax,Y,MEexperimental,7/8/14,11:37,1617,,,,,,,,,,,,,,,,,,,,,,,,,,,,,,,,,,,,,,,,,,,,,,,,,,,,,,,,,,,,,,,,,,,,,sub,1,5,frog,pifo,frog,novel,familiar,R,frog,Y,MEcontrol,7/8/14,11:37,3546,,,,,,,,,,,,,,,,,,,,,,,,,,,,,,,,,,,,,,,,,,,,,,,,,,,,,,,,,,,,,,,,,,,,,sub,1,6,fill1,na,na,na,na,na,na,na,filler,7/8/14,11:37,na,,,,,,,,,,,,,,,,,,,,,,,,,,,,,,,,,,,,,,,,,,,,,,,,,,,,,,,,,,,,,,,,,,,,,sub,1,1,dog,dog,book,familiar,familiar,L,dog,Y,rec,7/8/14,11:38,1911,,,,,,,,,,,,,,,,,,,,,,,,,,,,,,,,,,,,,,,,,,,,,,,,,,,,,,,,,,,,,,,,,,,,,sub,1,2,cookie,cookie,baby,familiar,familiar,L,cookie,Y,rec,7/8/14,11:38,935,,,,,,,,,,,,,sub,1,1,dog,dog,book,familiar,familiar,L,dog,Y,rec,7/9/14,13:38,13256,,,,,,,,,,,,,,,,,,,,,,,,,,,,,,,,,,,,,,,,,,sub,1,1,dog,dog,book,familiar,familiar,L,dog,Y,rec,7/9/14,13:50,15104,,,,,,,,,,,,,,,,,,,,,,,,,,,,,,,,,,,,,,,,,,,,,,,,,,,,,,,,,,,,,,,,,,,,,sub,1,1,dog,dog,book,familiar,familiar,L,dog,Y,rec,7/9/14,13:51,5651,,,,,,,,,,,,,,,,,,,,,,,,,,,,,,,,,,,,,,,,,,,,,,,,,,,,,,,,,,,,,,,,,,,,,sub,1,2,cookie,cookie,baby,familiar,familiar,L,cookie,Y,rec,7/9/14,13:51,1305,,,,,,,,,,,,,,,,,,,,,,,,,,,,,,,,,,,,,,,,,,,,,,,,,,,,,,,,,,,,,,,,,,,,,sub,1,3,car,fep,car,novel,familiar,R,car,Y,MEcontrol,7/9/14,13:51,1272,,,,,,,,,,,,,,,,,,,,,,,,,,,,,,,,,,,,,,,,,,,,,,,,,,,,,,,,,,,,,,,,,,,,,sub,1,4,dax,dax,cup,novel,familiar,L,dax,Y,MEexperimental,7/9/14,13:51,1540,,,,,,,,,,,,,,,,,,,,,,,,,,,,,,,,,,,,,,,,,,,,,,,,,,,,,,,,,,,,,,,,,,,,,sub,1,5,frog,pifo,frog,novel,familiar,R,frog,Y,MEcontrol,7/9/14,13:51,1001,,,,,,,,,,,,,,,,,,,,,,,,,,,,,,,,,,,,,,,,,,,,,,,,,,,,,,,,,,,,,,,,,,,,,sub,1,6,fill1,na,na,na,na,na,na,na,filler,7/9/14,13:51,na,,,,,,,,,,,,,,,,,,,,,,,,,,,,,,,,,,,,,,,,,,,,,,,,,,,,,,,,,,,,,,,,,,,,,sub,1,1,dog,dog,book,familiar,familiar,L,dog,Y,rec,7/9/14,13:53,858,,,,,,,,,,,,,,,,,,,,,,,,,,,,,,,,,,,,,,,,,,,,,,,,,,,,,,,,,,,,,,,,,,,,,sub,1,2,cookie,cookie,baby,familiar,familiar,L,cookie,Y,rec,7/9/14,13:53,743,,,,,,,,,,,,,,,,,,,,,,,,,,,,,,,,,,,,,,,,,,,,,,,,,,,,,,,,,,,,,,,,,,,,,sub,1,3,car,fep,car,novel,familiar,R,car,Y,MEcontrol,7/9/14,13:53,720,,,,,,,,,,,,,,,,,,,,,,,,,,,,,,,,,,,,,,,,,,,,,,,,,,,,,,,,,,,,,,,,,,,,,sub,1,4,dax,dax,cup,novel,familiar,L,dax,Y,MEexperimental,7/9/14,13:53,948,,,,,,,,,,,,,,,,,,,,,,,,,,,,,,,,,,,,,,,,,,,,,,,,,,,,,,,,,,,,,,,,,,,,,sub,1,6,fill1,na,na,na,na,na,na,na,filler,7/9/14,13:53,na,,,,,,,,,,,,,,,,,,,,,,,,,,,,,,,,,,,,,,,,,,,,,,,,,,,,,,,,,,,,,,,,,,,,,sub,1,5,frog,pifo,frog,novel,familiar,R,frog,Y,MEcontrol,7/9/14,13:53,929,,,,,,,,,,,,,,,,,,,,,,,,,,,,,,,,,,,,,,,,,,,,,,,,,,,,,,,,,,,,,,,,,,,,,sub,1,1,dog,dog,book,familiar,familiar,L,dog,Y,rec,7/9/14,14:08,830,,,,,,,,,,,,,,,,,,,,,,,,,,,,,,,,,,,,,,,,,,,,,,,,,,,,,,,,,,,,,,,,,,,,,sub,1,1,dog,dog,book,familiar,familiar,L,dog,Y,rec,7/9/14,14:13,68207,,,,,,,,,,,,,,,,,,,,,,,,,,,,,,,,,,,,,,,,,,,,,,,,,,,,,,,,,,,,,,,,,,,,,sub,1,2,cookie,cookie,baby,familiar,familiar,L,cookie,Y,rec,7/9/14,14:13,406,,,,,,,,,,,,,,,,,,,,,,,,,,,,,,,,,,,,,,,,,,,,,,,,,,,,,,,,,,,,,,,,,,,,,sub,1,3,car,fep,car,novel,familiar,R,car,Y,MEcontrol,7/9/14,14:13,6760,,,,,,,,,,,,,,,,,,,,,,,,,,,,,,,,,,,,,,,,,,,,,,,,,,,,,,,,,,,,,,,,,,,,,sub,1,1,dog,dog,book,familiar,familiar,L,dog,Y,rec,7/9/14,14:23,636,,,,,,,,,,,,,,,,,,,,,,,,,,,,,,,,,,,,,,,,,,,,,,,,,,,,,,,,,,,,,,,,,,,,,sub,1,2,cookie,cookie,baby,familiar,familiar,L,cookie,Y,rec,7/9/14,14:23,518,,,,,,,,,,,,,,,,,,,,,,,,,,,,,,,,,,,,,,,,,,,,,,,,,,,,,,,,,,,,,,,,,,,,,sub,1,3,car,fep,car,novel,familiar,R,car,Y,MEcontrol,7/9/14,14:23,649,,,,,,,,,,,,,,,,,,,,,,,,,,,,,,,,,,,,,,,,,,,,,,,,,,,,,,,,,,,,,,,,,,,,,sub,1,4,dax,dax,cup,novel,familiar,L,dax,Y,MEexperimental,7/9/14,14:23,757,,,,,,,,,,,,,,,,,,,,,,,,,,,,,,,,,,,,,,,,,,,,,,,,,,,,,,,,,,,,,,,,,,,,,sub,1,6,fill1,na,na,na,na,na,na,na,filler,7/9/14,14:23,na,,,,,,,,,,,,,,,,,,,,,,,,,,,,,,,,,,,,,,,,,,,,,,,,,,,,,,,,,,,,,,,,,,,,,sub,1,5,frog,pifo,frog,novel,familiar,R,frog,Y,MEcontrol,7/9/14,14:23,1181,,,,,,,,,,,,,,,,,,,,,,,,,,,,,,,,,,,,,,,,,,,,,,,,,,,,,,,,,,,,,,,,,,,,,stud,1,1,dog,dog,book,familiar,familiar,L,dog,Y,rec,7/9/14,14:34,1495,,,,,,,,,,,,,,,,,,,,,,,,,,,,,,,,,,,,,,,,,,,,,,,,,,,,,,,,,,,,,,,,,,,,,stud,1,2,cookie,cookie,baby,familiar,familiar,L,cookie,Y,rec,7/9/14,14:34,1565,,,,,,,,,,,,,,,,,,,,,,,,,,,,,,,,,,,,,,,,,,,,,,,,,,,,,,,,,,,,,,,,,,,,,stud,1,3,car,fep,car,novel,familiar,R,car,Y,MEcontrol,7/9/14,14:34,727,,,,,,,,,,,,,,,,,,,,,,,,,,,,,,,,,,,,,,,,,,,,,,,,,,,,,,,,,,,,,,,,,,,,,stud,1,4,dax,dax,cup,novel,familiar,L,dax,Y,MEexperimental,7/9/14,14:34,1000,,,,,,,,,,,,,,,,,,,,,,,,,,,,,,,,,,,,,,,,,,,,,,,,,,,,,,,,,,,,,,,,,,,,,stud,1,5,frog,pifo,frog,novel,familiar,R,frog,Y,MEcontrol,7/9/14,14:34,1052,,,,,,,,,,,,,,,,,,,,,,,,,,,,,,,,,,,,,,,,,,,,,,,,,,,,,,,,,,,,,,,,,,,,,stud,1,6,fill1,na,na,na,na,na,na,na,filler,7/9/14,14:34,na,,,,,,,,,,,,,,,,,,,,,,,,,,,,,,,,,,,,,,,,,,,,,,,,,,,,,,,,,,,,,,,,,,,,,sub,1,1,dog,dog,book,familiar,familiar,L,dog,Y,rec,7/9/14,14:37,1018,,,,,,,,,,,,,,,,,,,,,,,,,,,,,,,,,,,,,,,,,,,,,,,,,,,,,,,,,,,,,,,,,,,,,sub,1,2,cookie,cookie,baby,familiar,familiar,L,cookie,Y,rec,7/9/14,14:37,839,,,,,,,,,,,,,,,,,,,,,,,,,,,,,,,,,,,,,,,,,,,,,,,,,,,,,,,,,,,,,,,,,,,,,sub,1,3,car,fep,car,novel,familiar,R,car,Y,MEcontrol,7/9/14,14:37,693,,,,,,,,,,,,,,,,,,,,,,,,,,,,,,,,,,,,,,,,,,,,,,,,,,,,,,,,,,,,,,,,,,,,,sub,1,4,dax,dax,cup,novel,familiar,L,dax,Y,MEexperimental,7/9/14,14:37,936,,,,,,,,,,,,,,,,,,,,,,,,,,,,,,,,,,,,,,,,,,,,,,,,,,,,,,,,,,,,,,,,,,,,,sub,1,5,frog,pifo,frog,novel,familiar,R,frog,Y,MEcontrol,7/9/14,14:37,686,,,,,,,,,,,,,,,,,,,,,,,,,,,,,,,,,,,,,,,,,,,,,,,,,,,,,,,,,,,,,,,,,,,,,sub,1,6,fill1,na,na,na,na,na,na,na,filler,7/9/14,14:37,na,,,,,,,,,,,,,,,,,,,,,,,,,,,,,,,,,,,,,,,,,,,,,,,,,,,,,,,,,,,,,,,,,,,,,sub,1,1,dog,dog,book,familiar,familiar,L,dog,Y,rec,7/9/14,14:54,3084,,,,,,,,,,,,,,,,,,,,,,,,,,,,,,,,,,,,,,,,,,,,,,,,,,,,,,,,,,,,,,,,,,,,,sub,1,1,dog,dog,book,familiar,familiar,L,dog,Y,rec,7/9/14,14:56,1199,,,,,,,,,,,,,,,,,,,,,,,,,,,,,,,,,,,,,,,,,,,,,,,,,,,,,,,,,,,,,,,,,,,,,sub,1,2,cookie,cookie,baby,familiar,familiar,L,cookie,Y,rec,7/9/14,14:56,856,,,,,,,,,,,,,,,,,,,,,,,,,,,,,,,,,,,,,,,,,,,,,,,,,,,,,,,,,,,,,,,,,,,,,sub,1,3,car,fep,car,novel,familiar,R,car,Y,MEcontrol,7/9/14,14:56,872,,,,,,,,,,,,,,,,,,,,,,,,,,,,,,,,,,,,,,,,,,,,,,,,,,,,,,,,,,,,,,,,,,,,,sub,1,4,dax,dax,cup,novel,familiar,L,dax,Y,MEexperimental,7/9/14,14:56,849,,,,,,,,,,,,,,,,,,,,,,,,,,,,,,,,,,,,,,,,,,,,,,,,,,,,,,,,,,,,,,,,,,,,,sub,1,5,frog,pifo,frog,novel,familiar,R,frog,Y,MEcontrol,7/9/14,14:56,651,,,,,,,,,,,,,,,,,,,,,,,,,,,,,,,,,,,,,,,,,,,,,,,,,,,,,,,,,,,,,,,,,,,,,sub,1,6,fill1,na,na,na,na,na,na,na,filler,7/9/14,14:56,na,,,,,,,,,,,,,,,,,,,,,,,,,,,,,,,,,,,,,,,,,,,,,,,,,,,,,,,,,,,,,,,,,,,,,sub,1,7,lion,table,lion,familiar,familiar,R,lion,Y,rec,7/9/14,14:56,1199,,,,,,,,,,,,,,,,,,,,,,,,,,,,,,,,,,,,,,,,,,,,,,,,,,,,,,,,,,,,,,,,,,,,,sub,1,8,modi,modi,shovel,novel,familiar,L,modi,Y,MEexperimental,7/9/14,14:56,1810,,,,,,,,,,,,,,,,,,,,,,,,,,,,,,,,,,,,,,,,,,,,,,,,,,,,,,,,,,,,,,,,,,,,,sub,1,9,apple,wug,apple,novel,familiar,R,apple,Y,MEcontrol,7/9/14,14:56,1010,,,,,,,,,,,,,,,,,,,,,,,,,,,,,,,,,,,,,,,,,,,,,,,,,,,,,,,,,,,,,,,,,,,,,sub,1,10,train,train,dofa,familiar,novel,L,train,Y,MEcontrol,7/9/14,14:56,1319,,,,,,,,,,,,,,,,,,,,,,,,,,,,,,,,,,,,,,,,,,,,,,,,,,,,,,,,,,,,,,,,,,,,,sub,1,11,toma,monkey,toma,familiar,novel,R,toma,Y,MEexperimental,7/9/14,14:56,1287,,,,,,,,,,,,,,,,,,,,,,,,,,,,,,,,,,,,,,,,,,,,,,,,,,,,,,,,,,,,,,,,,,,,,sub,1,12,fill2,na,na,na,na,na,na,na,filler,7/9/14,14:56,na,,,,,,,,,,,,,,,,,,,,,,,,,,,,,,,,,,,,,,,,,,,,,,,,,,,,,,,,,,,,,,,,,,,,,sub,1,13,pifo,frog,pifo,familiar,novel,R,pifo,Y,MEexperimental,7/9/14,14:56,970,,,,,,,,,,,,,,,,,,,,,,,,,,,,,,,,,,,,,,,,,,,,,,,,,,,,,,,,,,,,,,,,,,,,,sub,1,14,cup,cup,dax,familiar,novel,L,cup,Y,MEcontrol,7/9/14,14:56,1007,,,,,,,,,,,,,,,,,,,,,,,,,,,,,,,,,,,,,,,,,,,,,,,,,,,,,,,,,,,,,,,,,,,,,sub,1,15,kreeb,kreeb,shoe,novel,familiar,R,shoe,N,MEexperimental,7/9/14,14:56,1805,,,,,,,,,,,,,,,,,,,,,,,,,,,,,,,,,,,,,,,,,,,,,,,,,,,,,,,,,,,,,,,,,,,,,sub,1,16,cat,ball,cat,familiar,familiar,R,cat,Y,rec,7/9/14,14:56,1308,,,,,,,,,,,,,,,,,,,,,,,,,,,,,,,,,,,,,,,,,,,,,,,,,,,,,,,,,,,,,,,,,,,,,sub,1,17,monkey,toma,monkey,novel,familiar,R,monkey,Y,MEcontrol,7/9/14,14:56,1647,,,,,,,,,,,,,,,,,,,,,,,,,,,,,,,,,,,,,,,,,,,,,,,,,,,,,,,,,,,,,,,,,,,,,sub,1,18,fill3,na,na,na,na,na,na,na,filler,7/9/14,14:56,na,,,,,,,,,,,,,,,,,,,,,,,,,,,,,,,,,,,,,,,,,,,,,,,,,,,,,,,,,,,,,,,,,,,,,sub,1,1,dog,dog,book,familiar,familiar,L,dog,Y,rec,7/9/14,14:59,1368,,,,,,,,,,,,,,,,,,,,,,,,,,,,,,,,,,,,,,,,,,,,,,,,,,,,,,,,,,,,,,,,,,,,,sub,1,2,cookie,cookie,baby,familiar,familiar,L,cookie,Y,rec,7/9/14,14:59,1062,,,,,,,,,,,,,,,,,,,,,,,,,,,,,,,,,,,,,,,,,,,,,,,,,,,,,,,,,,,,,,,,,,,,,sub,1,3,car,fep,car,novel,familiar,R,car,Y,MEcontrol,7/9/14,14:59,838,,,,,,,,,,,,,,,,,,,,,,,,,,,,,,,,,,,,,,,,,,,,,,,,,,,,,,,,,,,,,,,,,,,,,sub,1,4,dax,dax,cup,novel,familiar,L,dax,Y,MEexperimental,7/9/14,14:59,1022,,,,,,,,,,,,,,,,,,,,,,,,,,,,,,,,,,,,,,,,,,,,,,,,,,,,,,,,,,,,,,,,,,,,,sub,1,5,frog,pifo,frog,novel,familiar,R,frog,Y,MEcontrol,7/9/14,14:59,4359,,,,,,,,,,,,,,,,,,,,,,,,,,,,,,,,,,,,,,,,,,,,,,,,,,,,,,,,,,,,,,,,,,,,,sub,1,6,fill1,na,na,na,na,na,na,na,filler,7/9/14,14:59,na,,,,,,,,,,,,,,,,,,,,,,,,,,,,,,,,,,,,,,,,,,,,,,,,,,,,,,,,,,,,,,,,,,,,,sub,1,1,dog,dog,book,familiar,familiar,L,dog,Y,rec,7/9/14,15:01,968,,,,,,,,,,,,,,,,,,,,,,,,,,,,,,,,,,,,,,,,,,,,,,,,,,,,,,,,,,,,,,,,,,,,,sub,1,2,cookie,cookie,baby,familiar,familiar,L,cookie,Y,rec,7/9/14,15:01,956,,,,,,,,,,,,,,,,,,,,,,,,,,,,,,,,,,,,,,,,,,,,,,,,,,,,,,,,,,,,,,,,,,,,,sub,1,3,car,fep,car,novel,familiar,R,car,Y,MEcontrol,7/9/14,15:01,1130,,,,,,,,,,,,,,,,,,,,,,,,,,,,,,,,,,,,,,,,,,,,,,,,,,,,,,,,,,,,,,,,,,,,,sub,1,4,dax,dax,cup,novel,familiar,L,dax,Y,MEexperimental,7/9/14,15:01,3105,,,,,,,,,,,,,,,,,,,,,,,,,,,,,,,,,,,,,,,,,,,,,,,,,,,,,,,,,,,,,,,,,,,,,sub,1,5,frog,pifo,frog,novel,familiar,R,frog,Y,MEcontrol,7/9/14,15:01,1107,,,,,,,,,,,,,,,,,,,,,,,,,,,,,,,,,,,,,,,,,,,,,,,,,,,,,,,,,,,,,,,,,,,,,sub,1,6,fill1,na,na,na,na,na,na,na,filler,7/9/14,15:01,na,,,,,,,,,,,,,,,,,,,,,,,,,,,,,,,,,,,,,,,,,,,,,,,,,,,,,,,,,,,,,,,,,,,,,sub,1,1,dog,dog,book,familiar,familiar,L,dog,Y,rec,7/9/14,15:03,930,,,,,,,,,,,,,,,,,,,,,,,,,,,,,,,,,,,,,,,,,,,,,,,,,,,,,,,,,,,,,,,,,,,,,sub,1,2,cookie,cookie,baby,familiar,familiar,L,cookie,Y,rec,7/9/14,15:03,812,,,,,,,,,,,,,,,,,,,,,,,,,,,,,,,,,,,,,,,,,,,,,,,,,,,,,,,,,,,,,,,,,,,,,sub,1,3,car,fep,car,novel,familiar,R,car,Y,MEcontrol,7/9/14,15:03,1235,,,,,,,,,,,,,,,,,,,,,,,,,,,,,,,,,,,,,,,,,,,,,,,,,,,,,,,,,,,,,,,,,,,,,sub,1,4,dax,dax,cup,novel,familiar,L,dax,Y,MEexperimental,7/9/14,15:03,1119,,,,,,,,,,,,,,,,,,,,,,,,,,,,,,,,,,,,,,,,,,,,,,,,,,,,,,,,,,,,,,,,,,,,,sub,1,5,frog,pifo,frog,novel,familiar,R,frog,Y,MEcontrol,7/9/14,15:03,1043,,,,,,,,,,,,,,,,,,,,,,,,,,,,,,,,,,,,,,,,,,,,,,,,,,,,,,,,,,,,,,,,,,,,,sub,1,6,fill1,na,na,na,na,na,na,na,filler,7/9/14,15:03,na,,,,,,,,,,,,,,,,,,,,,,,,,,,,,,,,,,,,,,,,,,,,,,,,,,,,,,,,,,,,,,,,,,,,,sub,1,1,dog,dog,book,familiar,familiar,L,dog,Y,rec,7/9/14,15:15,9173,,,,,,,,,,,,,,,,,,,,,,,,,,,,,,,,,,,,,,,,,,,,,,,,,,,,,,,,,,,,,,,,,,,,,sib,1,1,dog,dog,book,familiar,familiar,L,dog,Y,rec,7/9/14,15:49,2113,,,,,,,,,,,,,,,,,,,,,,,,,,,,,,,,,,,,,,,,,,,,,,,,,,,,,,,,,,,,,,,,,,,,,sub,1,1,dog,dog,book,familiar,familiar,L,dog,Y,rec,7/9/14,16:01,859,,,,,,,,,,,,,,,,,,,,,,,,,,,,,,,,,,,,,,,,,,,,,,,,,,,,,,,,,,,,,,,,,,,,,sub,1,2,cookie,cookie,baby,familiar,familiar,L,cookie,Y,rec,7/9/14,16:01,718,,,,,,,,,,,,,,,,,,,,,,,,,,,,,,,,,,,,,,,,,,,,,,,,,,,,,,,,,,,,,,,,,,,,,sub,1,1,dog,dog,book,familiar,familiar,L,dog,Y,rec,7/9/14,16:02,868,,,,,,,,,,,,,,,,,,,,,,,,,,,,,,,,,,,,,,,,,,,,,,,,,,,,,,,,,,,,,,,,,,,,,sub,1,2,cookie,cookie,baby,familiar,familiar,R,baby,N,rec,7/9/14,16:02,729,,,,,,,,,,,,,,,,,,,,,,,,,,,,,,,,,,,,,,,,,,,,,,,,,,,,,,,,,,,,,,,,,,,,,sub,1,1,dog,dog,book,familiar,familiar,L,dog,Y,rec,7/9/14,16:08,773,,,,,,,,,,,,,,,,,,,,,,,,,,,,,,,,,,,,,,,,,,,,,,,,,,,,,,,,,,,,,,,,,,,,,sub,1,2,cookie,cookie,baby,familiar,familiar,R,baby,N,rec,7/9/14,16:08,527,,,,,,,,,,,,,,,,,,,,,,,,,,,,,,,,,,,,,,,,,,,,,,,,,,,,,,,,,,,,,,,,,,,,,elise,1,1,dog,dog,book,familiar,familiar,L,dog,Y,rec,7/9/14,16:11,939,,,,,,,,,,,,,,,,,,,,,,,,,,,,,,,,,,,,,,,,,,,,,,,,,,,,,,,,,,,,,,,,,,,,,elise,1,2,cookie,cookie,baby,familiar,familiar,L,cookie,Y,rec,7/9/14,16:11,596,,,,,,,,,,,,,,,,,,,,,,,,,,,,,,,,,,,,,,,,,,,,,,,,,,,,,,,,,,,,,,,,,,,,,sub,1,1,dog,dog,book,familiar,familiar,L,dog,Y,rec,7/9/14,16:12,879,,,,,,,,,,,,,,,,,,,,,,,,,,,,,,,,,,,,,,,,,,,,,,,,,,,,,,,,,,,,,,,,,,,,,sub,1,2,cookie,cookie,baby,familiar,familiar,L,cookie,Y,rec,7/9/14,16:12,591,,,,,,,,,,,,,,,,,,,,,,,,,,,,,,,,,,,,,,,,,,,,,,,,,,,,,,,,,,,,,,,,,,,,,sub,1,3,car,fep,car,novel,familiar,L,fep,N,MEcontrol,7/9/14,16:12,377,,,,,,,,,,,,,,,,,,,,,,,,,,,,,,,,,,,,,,,,,,,,,,,,,,,,,,,,,,,,,,,,,,,,,sub,1,1,dog,dog,book,familiar,familiar,L,dog,Y,rec,7/9/14,16:16,1022,,,,,,,,,,,,,,,,,,,,,,,,,,,,,,,,,,,,,,,,,,,,,,,,,,,,,,,,,,,,,,,,,,,,,sub,1,2,cookie,cookie,baby,familiar,familiar,R,baby,N,rec,7/9/14,16:16,362,,,,,,,,,,,,,,,,,,,,,,,,,,,,,,,,,,,,,,,,,,,,,,,,,,,,,,,,,,,,,,,,,,,,,sub,1,1,dog,dog,book,familiar,familiar,L,dog,Y,rec,7/9/14,16:19,2100,,,,,,,,,,,,,,,,,,,,,,,,,,,,,,,,,,,,,,,,,,,,,,,,,,,,,,,,,,,,,,,,,,,,,sub,1,2,cookie,cookie,baby,familiar,familiar,L,cookie,Y,rec,7/9/14,16:19,848,,,,,,,,,,,,,,,,,,,,,,,,,,,,,,,,,,,,,,,,,,,,,,,,,,,,,,,,,,,,,,,,,,,,,sub,1,3,car,fep,car,novel,familiar,R,car,Y,MEcontrol,7/9/14,16:19,1055,,,,,,,,,,,,,,,,,,,,,,,,,,,,,,,,,,,,,,,,,,,,,,,,,,,,,,,,,,,,,,,,,,,,,sub,1,4,dax,dax,cup,novel,familiar,L,dax,Y,MEexperimental,7/9/14,16:19,1448,,,,,,,,,,,,,,,,,,,,,,,,,,,,,,,,,,,,,,,,,,,,,,,,,,,,,,,,,,,,,,,,,,,,,sub,1,1,dog,dog,book,familiar,familiar,L,dog,Y,rec,7/9/14,16:58,767,,,,,,,,,,,,,,,,,,,,,,,,,,,,,,,,,,,,,,,,,,,,,,,,,,,,,,,,,,,,,,,,,,,,,sub,1,2,cookie,cookie,baby,familiar,familiar,R,baby,N,rec,7/9/14,16:58,-77,,,,,,,,,,,,,,,,,,,,,,,,,,,,,,,,,,,,,,,,,,,,,,,,,,,,,,,,,,,,,,,,,,,,,Us,1,1,dog,dog,book,familiar,familiar,R,book,N,rec,7/9/14,17:03,1197,,,,,,,,,,,,,,,,,,,,,,,,,,,,,,,,,,,,,,,,,,,,,,,,,,,,,,,,,,,,,,,,,,,,,Us,1,2,cookie,cookie,baby,familiar,familiar,L,cookie,Y,rec,7/9/14,17:03,699,,,,,,,,,,,,,,,,,,,,,,,,,,,,,,,,,,,,,,,,,,,,,,,,,,,,,,,,,,,,,,,,,,,,,s,1,1,dog,dog,book,familiar,familiar,L,dog,Y,rec,7/10/14,9:46,1351,,,,,,,,,,,,,,,,,,,,,,,,,,,,,,,,,,,,,,,,,,,,,,,,,,,,,,,,,,,,,,,,,,,,,s,1,1,dog,dog,book,familiar,familiar,L,dog,Y,rec,7/10/14,9:49,2971,,,,,,,,,,,,,,,,,,,,,,,,,,,,,,,,,,,,,,,,,,,,,,,,,,,,,,,,,,,,,,,,,,,,,s,1,1,dog,dog,book,familiar,familiar,L,dog,Y,rec,7/10/14,10:11,130629,,,,,,,,,,,,,,,,,,,,,,,,,,,,,,,,,,,,,,,,,,,,,,,,,,,,,,,,,,,,,,,,,,,,,s,1,2,cookie,cookie,baby,familiar,familiar,L,cookie,Y,rec,7/10/14,10:11,516,,,,,,,,,,,,,,,,,,,,,,,,,,,,,,,,,,,,,,,,,,,,,,,,,,,,,,,,,,,,,,,,,,,,,s,1,1,dog,dog,book,familiar,familiar,L,dog,Y,rec,7/10/14,10:31,971,,,,,,,,,,,,,,,,,,,,,,,,,,,,,,,,,,,,,,,,,,,,,,,,,,,,,,,,,,,,,,,,,,,,,s,1,2,cookie,cookie,baby,familiar,familiar,L,cookie,Y,rec,7/10/14,10:31,7330,,,,,,,,,,,,,,,,,,,,,,,,,,,,,,,,,,,,,,,,,,,,,,,,,,,,,,,,,,,,,,,,,,,,,s,1,3,car,fep,car,novel,familiar,R,car,Y,MEcontrol,7/10/14,10:31,739,,,,,,,,,,,,,,,,,,,,,,,,,,,,,,,,,,,,,,,,,,,,,,,,,,,,,,,,,,,,,,,,,,,,,s,1,4,dax,dax,cup,novel,familiar,L,dax,Y,MEexperimental,7/10/14,10:31,596,,,,,,,,,,,,,,,,,,,,,,,,,,,,,,,,,,,,,,,,,,,,,,,,,,,,,,,,,,,,,,,,,,,,,s,1,5,frog,pifo,frog,novel,familiar,R,frog,Y,MEcontrol,7/10/14,10:31,1460,,,,,,,,,,,,,,,,,,,,,,,,,,,,,,,,,,,,,,,,,,,,,,,,,,,,,,,,,,,,,,,,,,,,,s,1,6,fill1,na,na,na,na,na,na,na,filler,7/10/14,10:31,na,,,,,,,,,,,,,,,,,,,,,,,,,,,,,,,,,,,,,,,,,,,,,,,,,,,,,,,,,,,,,,,,,,,,,s,1,7,lion,table,lion,familiar,familiar,R,lion,Y,rec,7/10/14,10:31,307,,,,,,,,,,,,,,,,,,,,,,,,,,,,,,,,,,,,,,,,,,,,,,,,,,,,,,,,,,,,,,,,,,,,,s,1,8,modi,modi,shovel,novel,familiar,L,modi,Y,MEexperimental,7/10/14,10:31,989,,,,,,,,,,,,,,,,,,,,,,,,,,,,,,,,,,,,,,,,,,,,,,,,,,,,,,,,,,,,,,,,,,,,,s,1,9,apple,wug,apple,novel,familiar,L,wug,N,MEcontrol,7/10/14,10:31,855,,,,,,,,,,,,,,,,,,,,,,,,,,,,,,,,,,,,,,,,,,,,,,,,,,,,,,,,,,,,,,,,,,,,,s,1,10,train,train,dofa,familiar,novel,L,train,Y,MEcontrol,7/10/14,10:31,1518,,,,,,,,,,,,,,,,,,,,,,,,,,,,,,,,,,,,,,,,,,,,,,,,,,,,,,,,,,,,,,,,,,,,,s,1,11,toma,monkey,toma,familiar,novel,R,toma,Y,MEexperimental,7/10/14,10:31,1266,,,,,,,,,,,,,,,,,,,,,,,,,,,,,,,,,,,,,,,,,,,,,,,,,,,,,,,,,,,,,,,,,,,,,s,1,12,fill2,na,na,na,na,na,na,na,filler,7/10/14,10:31,na,,,,,,,,,,,,,,,,,,,,,,,,,,,,,,,,,,,,,,,,,,,,,,,,,,,,,,,,,,,,,,,,,,,,,S,1,1,dog,dog,book,familiar,familiar,L,dog,Y,rec,7/10/14,14:13,2157,,,,,,,,,,,,,,,,,,,,,,,,,,,,,,,,,,,,,,,,,,,,,,,,,,,,,,,,,,,,,,,,,,,,,S,1,2,cookie,cookie,baby,familiar,familiar,L,cookie,Y,rec,7/10/14,14:13,1131,,,,,,,,,,,,,,,,,,,,,,,,,,,,,,,,,,,,,,,,,,,,,,,,,,,,,,,,,,,,,,,,,,,,,S,1,1,dog,dog,book,familiar,familiar,R,book,N,rec,7/10/14,14:16,21829,,,,,,,,,,,,,,,,,,,,,,,,,,,,,,,,,,,,,,,,,,,,,,,,,,,,,,,,,,,,,,,,,,,,,test,1,1,dog,dog,book,familiar,familiar,L,dog,Y,rec,7/10/14,15:27,1405,,,,,,,,,,,,,,,,,,,,,,,,,,,,,,,,,,,,,,,,,,,,,,,,,,,,,,,,,,,,,,,,,,,,,test,1,2,cookie,cookie,baby,familiar,familiar,L,cookie,Y,rec,7/10/14,15:27,788,,,,,,,,,,,,,,,,,,,,,,,,,,,,,,,,,,,,,,,,,,,,,,,,,,,,,,,,,,,,,,,,,,,,,test,1,3,car,fep,car,novel,familiar,R,car,Y,MEcontrol,7/10/14,15:27,954,,,,,,,,,,,,,,,,,,,,,,,,,,,,,,,,,,,,,,,,,,,,,,,,,,,,,,,,,,,,,,,,,,,,,test,1,4,dax,dax,cup,novel,familiar,L,dax,Y,MEexperimental,7/10/14,15:27,1847,,,,,,,,,,,,,,,,,,,,,,,,,,,,,,,,,,,,,,,,,,,,,,,,,,,,,,,,,,,,,,,,,,,,,test,1,5,frog,pifo,frog,novel,familiar,R,frog,Y,MEcontrol,7/10/14,15:27,703,,,,,,,,,,,,,,,,,,,,,,,,,,,,,,,,,,,,,,,,,,,,,,,,,,,,,,,,,,,,,,,,,,,,,test,1,6,fill1,na,na,na,na,na,na,na,filler,7/10/14,15:27,na,,,,,,,,,,,,,,,,,,,,,,,,,,,,,,,,,,,,,,,,,,,,,,,,,,,,,,,,,,,,,,,,,,,,,1,1,1,dog,dog,book,familiar,familiar,L,dog,Y,rec,7/10/14,18:18,2012,,,,,,,,,,,,,,,,,,,,,,,,,,,,,,,,,,,,,,,,,,,,,,,,,,,,,,,,,,,,,,,,,,,,,1,1,2,cookie,cookie,baby,familiar,familiar,L,cookie,Y,rec,7/10/14,18:18,1041,,,,,,,,,,,,,,,,,,,,,,,,,,,,,,,,,,,,,,,,,,,,,,,,,,,,,,,,,,,,,,,,,,,,,1,1,3,car,fep,car,novel,familiar,L,fep,N,MEcontrol,7/10/14,18:18,540,,,,,,,,,,,,,,,,,,,,,,,,,,,,,,,,,,,,,,,,,,,,,,,,,,,,,,,,,,,,,,,,,,,,,1,1,4,dax,dax,cup,novel,familiar,L,dax,Y,MEexperimental,7/10/14,18:18,526,,,,,,,,,,,,,,,,,,,,,,,,,,,,,,,,,,,,,,,,,,,,,,,,,,,,,,,,,,,,,,,,,,,,,1,1,5,frog,pifo,frog,novel,familiar,R,frog,Y,MEcontrol,7/10/14,18:18,509,,,,,,,,,,,,,,,,,,,,,,,,,,,,,,,,,,,,,,,,,,,,,,,,,,,,,,,,,,,,,,,,,,,,,1,1,6,fill1,na,na,na,na,na,na,na,filler,7/10/14,18:18,na,,,,,,,,,,,,,,,,,,,,,,,,,,,,,,,,,,,,,,,,,,,,,,,,,,,,,,,,,,,,,,,,,,,,,1,1,7,lion,table,lion,familiar,familiar,R,lion,Y,rec,7/10/14,18:18,1431,,,,,,,,,,,,,,,,,,,,,,,,,,,,,,,,,,,,,,,,,,,,,,,,,,,,,,,,,,,,,,,,,,,,,1,1,8,modi,modi,shovel,novel,familiar,L,modi,Y,MEexperimental,7/10/14,18:18,1206,,,,,,,,,,,,,,,,,,,,,,,,,,,,,,,,,,,,,,,,,,,,,,,,,,,,,,,,,,,,,,,,,,,,,1,1,9,apple,wug,apple,novel,familiar,L,wug,N,MEcontrol,7/10/14,18:18,38209,,,,,,,,,,,,,,,,,,,,,,,,,,,,,,,,,,,,,,,,,,,,,,,,,,,,,,,,,,,,,,,,,,,,,1,1,10,train,train,dofa,familiar,novel,L,train,Y,MEcontrol,7/10/14,18:18,1374,,,,,,,,,,,,,,,,,,,,,,,,,,,,,,,,,,,,,,,,,,,,,,,,,,,,,,,,,,,,,,,,,,,,,1,1,11,toma,monkey,toma,familiar,novel,R,toma,Y,MEexperimental,7/10/14,18:18,1625,,,,,,,,,,,,,,,,,,,,,,,,,,,,,,,,,,,,,,,,,,,,,,,,,,,,,,,,,,,,,,,,,,,,,1,1,12,fill2,na,na,na,na,na,na,na,filler,7/10/14,18:18,na,,,,,,,,,,,,,,,,,,,,,,,,,,,,,,,,,,,,,,,,,,,,,,,,,,,,,,,,,,,,,,,,,,,,,s,1,1,dog,dog,book,familiar,familiar,L,dog,Y,rec,7/11/14,9:33,1941,,,,,,,,,,,,,,,,,,,,,,,,,,,,,,,,,,,,,,,,,,,,,,,,,,,,,,,,,,,,,,,,,,,,,s,1,2,cookie,cookie,baby,familiar,familiar,L,cookie,Y,rec,7/11/14,9:33,644,,,,,,,,,,,,,,,,,,,,,,,,,,,,,,,,,,,,,,,,,,,,,,,,,,,,,,,,,,,,,,,,,,,,,Cdmtest,1,1,dog,dog,book,familiar,familiar,L,dog,Y,rec,7/11/14,13:22,12853,,,,,,,,,,,,,,,,,,,,,,,,,,,,,,,,,,,,,,,,,,,,,,,,,,,,,,,,,,,,,,,,,,,,,Cdmtest,1,2,cookie,cookie,baby,familiar,familiar,L,cookie,Y,rec,7/11/14,13:22,5396,,,,,,,,,,,,,,,,,,,,,,,,,,,,,,,,,,,,,,,,,,,,,,,,,,,,,,,,,,,,,,,,,,,,,Cdmtest,1,3,car,fep,car,novel,familiar,R,car,Y,MEcontrol,7/11/14,13:22,18055,,,,,,,,,,,,,,,,,,,,,,,,,,,,,,,,,,,,,,,,,,,,,,,,,,,,,,,,,,,,,,,,,,,,,Cdmtest,1,4,dax,dax,cup,novel,familiar,L,dax,Y,MEexperimental,7/11/14,13:22,181887,,,,,,,,,,,,,,,,,,,,,,,,,,,,,,,,,,,,,,,,,,,,,,,,,,,,,,,,,,,,,,,,,,,,,Cdmtest,1,5,frog,pifo,frog,novel,familiar,R,frog,Y,MEcontrol,7/11/14,13:22,9624,,,,,,,,,,,,,,,,,,,,,,,,,,,,,,,,,,,,,,,,,,,,,,,,,,,,,,,,,,,,,,,,,,,,,Cdmtest,1,6,fill1,na,na,na,na,na,na,na,filler,7/11/14,13:22,na,,,,,,,,,,,,,,,,,,,,,,,,,,,,,,,,,,,,,,,,,,,,,,,,,,,,,,,,,,,,,,,,,,,,,Cdmtest,1,7,lion,table,lion,familiar,familiar,R,lion,Y,rec,7/11/14,13:22,20209,,,,,,,,,,,,,,,,,,,,,,,,,,,,,,,,,,,,,,,,,,,,,,,,,,,,,,,,,,,,,,,,,,,,,Cdmtest,1,8,modi,modi,shovel,novel,familiar,L,modi,Y,MEexperimental,7/11/14,13:22,2748,,,,,,,,,,,,,,,,,,,,,,,,,,,,,,,,,,,,,,,,,,,,,,,,,,,,,,,,,,,,,,,,,,,,,Cdmtest,1,9,apple,wug,apple,novel,familiar,R,apple,Y,MEcontrol,7/11/14,13:22,9837,,,,,,,,,,,,,,,,,,,,,,,,,,,,,,,,,,,,,,,,,,,,,,,,,,,,,,,,,,,,,,,,,,,,,Cdmtest,1,10,train,train,dofa,familiar,novel,L,train,Y,MEcontrol,7/11/14,13:22,3165,,,,,,,,,,,,,,,,,,,,,,,,,,,,,,,,,,,,,,,,,,,,,,,,,,,,,,,,,,,,,,,,,,,,,Cdmtest,1,11,toma,monkey,toma,familiar,novel,R,toma,Y,MEexperimental,7/11/14,13:22,874,,,,,,,,,,,,,,,,,,,,,,,,,,,,,,,,,,,,,,,,,,,,,,,,,,,,,,,,,,,,,,,,,,,,,Cdmtest,1,12,fill2,na,na,na,na,na,na,na,filler,7/11/14,13:22,na,,,,,,,,,,,,,,,,,,,,,,,,,,,,,,,,,,,,,,,,,,,,,,,,,,,,,,,,,,,,,,,,,,,,,Cdmtest,1,13,pifo,frog,pifo,familiar,novel,R,pifo,Y,MEexperimental,7/11/14,13:22,1150,,,,,,,,,,,,,,,,,,,,,,,,,,,,,,,,,,,,,,,,,,,,,,,,,,,,,,,,,,,,,,,,,,,,,Cdmtest,1,14,cup,cup,dax,familiar,novel,L,cup,Y,MEcontrol,7/11/14,13:22,1087,,,,,,,,,,,,,,,,,,,,,,,,,,,,,,,,,,,,,,,,,,,,,,,,,,,,,,,,,,,,,,,,,,,,,Cdmtest,1,15,kreeb,kreeb,shoe,novel,familiar,R,shoe,N,MEexperimental,7/11/14,13:22,1398,,,,,,,,,,,,,,,,,,,,,,,,,,,,,,,,,,,,,,,,,,,,,,,,,,,,,,,,,,,,,,,,,,,,,Cdmtest,1,16,cat,ball,cat,familiar,familiar,L,ball,N,rec,7/11/14,13:22,1900,,,,,,,,,,,,,,,,,,,,,,,,,,,,,,,,,,,,,,,,,,,,,,,,,,,,,,,,,,,,,,,,,,,,,Cdmtest,1,18,fill3,na,na,na,na,na,na,na,filler,7/11/14,13:22,na,,,,,,,,,,,,,,,,,,,,,,,,,,,,,,,,,,,,,,,,,,,,,,,,,,,,,,,,,,,,,,,,,,,,,Cdmtest,1,17,monkey,toma,monkey,novel,familiar,R,monkey,Y,MEcontrol,7/11/14,13:22,1235,,,,,,,,,,,,,,,,,,,,,,,,,,,,,,,,,,,,,,,,,,,,,,,,,,,,,,,,,,,,,,,,,,,,,Cdmtest,1,19,dofa,dofa,train,novel,familiar,L,dofa,Y,MEexperimental,7/11/14,13:22,1098,,,,,,,,,,,,,,,,,,,,,,,,,,,,,,,,,,,,,,,,,,,,,,,,,,,,,,,,,,,,,,,,,,,,,Cdmtest,1,20,fep,car,fep,familiar,novel,R,fep,Y,MEexperimental,7/11/14,13:22,961,,,,,,,,,,,,,,,,,,,,,,,,,,,,,,,,,,,,,,,,,,,,,,,,,,,,,,,,,,,,,,,,,,,,,Cdmtest,1,21,carrot,carrot,lamp,familiar,familiar,L,carrot,Y,rec,7/11/14,13:22,1336,,,,,,,,,,,,,,,,,,,,,,,,,,,,,,,,,,,,,,,,,,,,,,,,,,,,,,,,,,,,,,,,,,,,,Cdmtest,1,22,shovel,shovel,modi,familiar,novel,R,modi,N,MEcontrol,7/11/14,13:22,1412,,,,,,,,,,,,,,,,,,,,,,,,,,,,,,,,,,,,,,,,,,,,,,,,,,,,,,,,,,,,,,,,,,,,,Cdmtest,1,23,hammer,sheep,hammer,familiar,familiar,L,sheep,N,rec,7/11/14,13:22,981,,,,,,,,,,,,,,,,,,,,,,,,,,,,,,,,,,,,,,,,,,,,,,,,,,,,,,,,,,,,,,,,,,,,,Cdmtest,1,24,fill4,na,na,na,na,na,na,na,filler,7/11/14,13:22,na,,,,,,,,,,,,,,,,,,,,,,,,,,,,,,,,,,,,,,,,,,,,,,,,,,,,,,,,,,,,,,,,,,,,,Cdmtest,1,25,wug,apple,wug,familiar,novel,L,apple,N,MEexperimental,7/11/14,13:22,2901,,,,,,,,,,,,,,,,,,,,,,,,,,,,,,,,,,,,,,,,,,,,,,,,,,,,,,,,,,,,,,,,,,,,,Cdmtest,1,26,shoe,shoe,kreeb,familiar,novel,R,kreeb,N,MEcontrol,7/11/14,13:22,1449,,,,,,,,,,,,,,,,,,,,,,,,,,,,,,,,,,,,,,,,,,,,,,,,,,,,,,,,,,,,,,,,,,,,,Cdmtest,1,27,horse,horse,clock,familiar,familiar,L,horse,Y,rec,7/11/14,13:22,1463,,,,,,,,,,,,,,,,,,,,,,,,,,,,,,,,,,,,,,,,,,,,,,,,,,,,,,,,,,,,,,,,,,,,,Cdmtest,1,28,bottle,bird,bottle,familiar,familiar,R,bottle,Y,rec,7/11/14,13:22,1086,,,,,,,,,,,,,,,,,,,,,,,,,,,,,,,,,,,,,,,,,,,,,,,,,,,,,,,,,,,,,,,,,,,,,71114-1,1,1,dog,dog,book,familiar,familiar,L,dog,Y,rec,7/11/14,13:47,1705,,,,,,,,,,,,,,,,,,,,,,,,,,,,,,,,,,,,,,,,,,,,,,,,,,,,,,,,,,,,,,,,,,,,,71114-1,1,2,cookie,cookie,baby,familiar,familiar,L,cookie,Y,rec,7/11/14,13:47,1392,,,,,,,,,,,,,,,,,,,,,,,,,,,,,,,,,,,,,,,,,,,,,,,,,,,,,,,,,,,,,,,,,,,,,71114-1,1,3,car,fep,car,novel,familiar,R,car,Y,MEcontrol,7/11/14,13:47,2874,,,,,,,,,,,,,,,,,,,,,,,,,,,,,,,,,,,,,,,,,,,,,,,,,,,,,,,,,,,,,,,,,,,,,71114-1,1,4,dax,dax,cup,novel,familiar,L,dax,Y,MEexperimental,7/11/14,13:47,1718,,,,,,,,,,,,,,,,,,,,,,,,,,,,,,,,,,,,,,,,,,,,,,,,,,,,,,,,,,,,,,,,,,,,,71114-1,1,5,frog,pifo,frog,novel,familiar,R,frog,Y,MEcontrol,7/11/14,13:47,1117,,,,,,,,,,,,,,,,,,,,,,,,,,,,,,,,,,,,,,,,,,,,,,,,,,,,,,,,,,,,,,,,,,,,,71114-1,1,6,fill1,na,na,na,na,na,na,na,filler,7/11/14,13:47,na,,,,,,,,,,,,,,,,,,,,,,,,,,,,,,,,,,,,,,,,,,,,,,,,,,,,,,,,,,,,,,,,,,,,,71114-1,1,7,lion,table,lion,familiar,familiar,R,lion,Y,rec,7/11/14,13:47,1387,,,,,,,,,,,,,,,,,,,,,,,,,,,,,,,,,,,,,,,,,,,,,,,,,,,,,,,,,,,,,,,,,,,,,71114-1,1,8,modi,modi,shovel,novel,familiar,L,modi,Y,MEexperimental,7/11/14,13:47,3008,,,,,,,,,,,,,,,,,,,,,,,,,,,,,,,,,,,,,,,,,,,,,,,,,,,,,,,,,,,,,,,,,,,,,71114-1,1,9,apple,wug,apple,novel,familiar,R,apple,Y,MEcontrol,7/11/14,13:47,1193,,,,,,,,,,,,,,,,,,,,,,,,,,,,,,,,,,,,,,,,,,,,,,,,,,,,,,,,,,,,,,,,,,,,,71114-1,1,10,train,train,dofa,familiar,novel,L,train,Y,MEcontrol,7/11/14,13:47,1536,,,,,,,,,,,,,,,,,,,,,,,,,,,,,,,,,,,,,,,,,,,,,,,,,,,,,,,,,,,,,,,,,,,,,71114-1,1,11,toma,monkey,toma,familiar,novel,R,toma,Y,MEexperimental,7/11/14,13:47,13514,,,,,,,,,,,,,,,,,,,,,,,,,,,,,,,,,,,,,,,,,,,,,,,,,,,,,,,,,,,,,,,,,,,,,71114-1,1,12,fill2,na,na,na,na,na,na,na,filler,7/11/14,13:47,na,,,,,,,,,,,,,,,,,,,,,,,,,,,,,,,,,,,,,,,,,,,,,,,,,,,,,,,,,,,,,,,,,,,,,71114-1,1,13,pifo,frog,pifo,familiar,novel,R,pifo,Y,MEexperimental,7/11/14,13:47,2530,,,,,,,,,,,,,,,,,,,,,,,,,,,,,,,,,,,,,,,,,,,,,,,,,,,,,,,,,,,,,,,,,,,,,71114-1,1,15,kreeb,kreeb,shoe,novel,familiar,R,shoe,N,MEexperimental,7/11/14,13:47,2953,,,,,,,,,,,,,,,,,,,,,,,,,,,,,,,,,,,,,,,,,,,,,,,,,,,,,,,,,,,,,,,,,,,,,71114-1,1,16,cat,ball,cat,familiar,familiar,R,cat,Y,rec,7/11/14,13:47,1399,,,,,,,,,,,,,,,,,,,,,,,,,,,,,,,,,,,,,,,,,,,,,,,,,,,,,,,,,,,,,,,,,,,,,71114-1,1,14,cup,cup,dax,familiar,novel,L,cup,Y,MEcontrol,7/11/14,13:47,1303,,,,,,,,,,,,,,,,,,,,,,,,,,,,,,,,,,,,,,,,,,,,,,,,,,,,,,,,,,,,,,,,,,,,,71114-1,1,17,monkey,toma,monkey,novel,familiar,R,monkey,Y,MEcontrol,7/11/14,13:47,1562,,,,,,,,,,,,,,,,,,,,,,,,,,,,,,,,,,,,,,,,,,,,,,,,,,,,,,,,,,,,,,,,,,,,,71114-1,1,18,fill3,na,na,na,na,na,na,na,filler,7/11/14,13:47,na,,,,,,,,,,,,,,,,,,,,,,,,,,,,,,,,,,,,,,,,,,,,,,,,,,,,,,,,,,,,,,,,,,,,,71114-1,1,19,dofa,dofa,train,novel,familiar,L,dofa,Y,MEexperimental,7/11/14,13:47,4157,,,,,,,,,,,,,,,,,,,,,,,,,,,,,,,,,,,,,,,,,,,,,,,,,,,,,,,,,,,,,,,,,,,,,71114-1,1,20,fep,car,fep,familiar,novel,R,fep,Y,MEexperimental,7/11/14,13:47,1540,,,,,,,,,,,,,,,,,,,,,,,,,,,,,,,,,,,,,,,,,,,,,,,,,,,,,,,,,,,,,,,,,,,,,71114-1,1,21,carrot,carrot,lamp,familiar,familiar,L,carrot,Y,rec,7/11/14,13:47,1474,,,,,,,,,,,,,,,,,,,,,,,,,,,,,,,,,,,,,,,,,,,,,,,,,,,,,,,,,,,,,,,,,,,,,71114-1,1,22,shovel,shovel,modi,familiar,novel,L,shovel,Y,MEcontrol,7/11/14,13:47,2179,,,,,,,,,,,,,,,,,,,,,,,,,,,,,,,,,,,,,,,,,,,,,,,,,,,,,,,,,,,,,,,,,,,,,71114-1,1,23,hammer,sheep,hammer,familiar,familiar,R,hammer,Y,rec,7/11/14,13:47,2792,,,,,,,,,,,,,,,,,,,,,,,,,,,,,,,,,,,,,,,,,,,,,,,,,,,,,,,,,,,,,,,,,,,,,71114-1,1,24,fill4,na,na,na,na,na,na,na,filler,7/11/14,13:47,na,,,,,,,,,,,,,,,,,,,,,,,,,,,,,,,,,,,,,,,,,,,,,,,,,,,,,,,,,,,,,,,,,,,,,71114-1,1,25,wug,apple,wug,familiar,novel,R,wug,Y,MEexperimental,7/11/14,13:47,2080,,,,,,,,,,,,,,,,,,,,,,,,,,,,,,,,,,,,,,,,,,,,,,,,,,,,,,,,,,,,,,,,,,,,,71114-1,1,26,shoe,shoe,kreeb,familiar,novel,L,shoe,Y,MEcontrol,7/11/14,13:47,1863,,,,,,,,,,,,,,,,,,,,,,,,,,,,,,,,,,,,,,,,,,,,,,,,,,,,,,,,,,,,,,,,,,,,,71114-1,1,27,horse,horse,clock,familiar,familiar,L,horse,Y,rec,7/11/14,13:47,1490,,,,,,,,,,,,,,,,,,,,,,,,,,,,,,,,,,,,,,,,,,,,,,,,,,,,,,,,,,,,,,,,,,,,,71114-1,1,28,bottle,bird,bottle,familiar,familiar,R,bottle,Y,rec,7/11/14,13:47,2038,,,,,,,,,,,,,,,,,,,,,,,,,,,,,,,,,,,,,,,,,,,,,,,,,,,,,,,,,,,,,,,,,,,,,71114-2,1,1,dog,dog,book,familiar,familiar,L,dog,Y,rec,7/11/14,13:59,3414,,,,,,,,,,,,,,,,,,,,,,,,,,,,,,,,,,,,,,,,,,,,,,,,,,,,,,,,,,,,,,,,,,,,,71114-2,1,2,cookie,cookie,baby,familiar,familiar,L,cookie,Y,rec,7/11/14,13:59,1368,,,,,,,,,,,,,,,,,,,,,,,,,,,,,,,,,,,,,,,,,,,,,,,,,,,,,,,,,,,,,,,,,,,,,71114-2,1,3,car,fep,car,novel,familiar,R,car,Y,MEcontrol,7/11/14,13:59,1411,,,,,,,,,,,,,,,,,,,,,,,,,,,,,,,,,,,,,,,,,,,,,,,,,,,,,,,,,,,,,,,,,,,,,71114-2,1,4,dax,dax,cup,novel,familiar,L,dax,Y,MEexperimental,7/11/14,13:59,1863,,,,,,,,,,,,,,,,,,,,,,,,,,,,,,,,,,,,,,,,,,,,,,,,,,,,,,,,,,,,,,,,,,,,,71114-2,1,5,frog,pifo,frog,novel,familiar,R,frog,Y,MEcontrol,7/11/14,13:59,1162,,,,,,,,,,,,,,,,,,,,,,,,,,,,,,,,,,,,,,,,,,,,,,,,,,,,,,,,,,,,,,,,,,,,,71114-2,1,6,fill1,na,na,na,na,na,na,na,filler,7/11/14,13:59,na,,,,,,,,,,,,,,,,,,,,,,,,,,,,,,,,,,,,,,,,,,,,,,,,,,,,,,,,,,,,,,,,,,,,,71114-2,1,7,lion,table,lion,familiar,familiar,R,lion,Y,rec,7/11/14,13:59,1459,,,,,,,,,,,,,,,,,,,,,,,,,,,,,,,,,,,,,,,,,,,,,,,,,,,,,,,,,,,,,,,,,,,,,71114-2,1,8,modi,modi,shovel,novel,familiar,L,modi,Y,MEexperimental,7/11/14,13:59,1893,,,,,,,,,,,,,,,,,,,,,,,,,,,,,,,,,,,,,,,,,,,,,,,,,,,,,,,,,,,,,,,,,,,,,71114-2,1,9,apple,wug,apple,novel,familiar,R,apple,Y,MEcontrol,7/11/14,13:59,1227,,,,,,,,,,,,,,,,,,,,,,,,,,,,,,,,,,,,,,,,,,,,,,,,,,,,,,,,,,,,,,,,,,,,,71114-2,1,10,train,train,dofa,familiar,novel,L,train,Y,MEcontrol,7/11/14,13:59,1325,,,,,,,,,,,,,,,,,,,,,,,,,,,,,,,,,,,,,,,,,,,,,,,,,,,,,,,,,,,,,,,,,,,,,71114-2,1,11,toma,monkey,toma,familiar,novel,R,toma,Y,MEexperimental,7/11/14,13:59,1618,,,,,,,,,,,,,,,,,,,,,,,,,,,,,,,,,,,,,,,,,,,,,,,,,,,,,,,,,,,,,,,,,,,,,71114-2,1,12,fill2,na,na,na,na,na,na,na,filler,7/11/14,13:59,na,,,,,,,,,,,,,,,,,,,,,,,,,,,,,,,,,,,,,,,,,,,,,,,,,,,,,,,,,,,,,,,,,,,,,71114-2,1,13,pifo,frog,pifo,familiar,novel,R,pifo,Y,MEexperimental,7/11/14,13:59,1570,,,,,,,,,,,,,,,,,,,,,,,,,,,,,,,,,,,,,,,,,,,,,,,,,,,,,,,,,,,,,,,,,,,,,71114-2,1,14,cup,cup,dax,familiar,novel,L,cup,Y,MEcontrol,7/11/14,13:59,1678,,,,,,,,,,,,,,,,,,,,,,,,,,,,,,,,,,,,,,,,,,,,,,,,,,,,,,,,,,,,,,,,,,,,,71114-2,1,15,kreeb,kreeb,shoe,novel,familiar,R,shoe,N,MEexperimental,7/11/14,13:59,1786,,,,,,,,,,,,,,,,,,,,,,,,,,,,,,,,,,,,,,,,,,,,,,,,,,,,,,,,,,,,,,,,,,,,,71114-2,1,16,cat,ball,cat,familiar,familiar,R,cat,Y,rec,7/11/14,13:59,1498,,,,,,,,,,,,,,,,,,,,,,,,,,,,,,,,,,,,,,,,,,,,,,,,,,,,,,,,,,,,,,,,,,,,,71114-2,1,17,monkey,toma,monkey,novel,familiar,R,monkey,Y,MEcontrol,7/11/14,13:59,1387,,,,,,,,,,,,,,,,,,,,,,,,,,,,,,,,,,,,,,,,,,,,,,,,,,,,,,,,,,,,,,,,,,,,,71114-2,1,18,fill3,na,na,na,na,na,na,na,filler,7/11/14,13:59,na,,,,,,,,,,,,,,,,,,,,,,,,,,,,,,,,,,,,,,,,,,,,,,,,,,,,,,,,,,,,,,,,,,,,,71114-2,1,19,dofa,dofa,train,novel,familiar,L,dofa,Y,MEexperimental,7/11/14,13:59,1821,,,,,,,,,,,,,,,,,,,,,,,,,,,,,,,,,,,,,,,,,,,,,,,,,,,,,,,,,,,,,,,,,,,,,71114-2,1,20,fep,car,fep,familiar,novel,R,fep,Y,MEexperimental,7/11/14,13:59,1373,,,,,,,,,,,,,,,,,,,,,,,,,,,,,,,,,,,,,,,,,,,,,,,,,,,,,,,,,,,,,,,,,,,,,71114-2,1,21,carrot,carrot,lamp,familiar,familiar,L,carrot,Y,rec,7/11/14,13:59,1360,,,,,,,,,,,,,,,,,,,,,,,,,,,,,,,,,,,,,,,,,,,,,,,,,,,,,,,,,,,,,,,,,,,,,71114-2,1,22,shovel,shovel,modi,familiar,novel,L,shovel,Y,MEcontrol,7/11/14,13:59,1384,,,,,,,,,,,,,,,,,,,,,,,,,,,,,,,,,,,,,,,,,,,,,,,,,,,,,,,,,,,,,,,,,,,,,71114-2,1,24,fill4,na,na,na,na,na,na,na,filler,7/11/14,13:59,na,,,,,,,,,,,,,,,,,,,,,,,,,,,,,,,,,,,,,,,,,,,,,,,,,,,,,,,,,,,,,,,,,,,,,71114-2,1,23,hammer,sheep,hammer,familiar,familiar,R,hammer,Y,rec,7/11/14,13:59,1655,,,,,,,,,,,,,,,,,,,,,,,,,,,,,,,,,,,,,,,,,,,,,,,,,,,,,,,,,,,,,,,,,,,,,71114-2,1,25,wug,apple,wug,familiar,novel,R,wug,Y,MEexperimental,7/11/14,13:59,1954,,,,,,,,,,,,,,,,,,,,,,,,,,,,,,,,,,,,,,,,,,,,,,,,,,,,,,,,,,,,,,,,,,,,,71114-2,1,26,shoe,shoe,kreeb,familiar,novel,L,shoe,Y,MEcontrol,7/11/14,13:59,2226,,,,,,,,,,,,,,,,,,,,,,,,,,,,,,,,,,,,,,,,,,,,,,,,,,,,,,,,,,,,,,,,,,,,,71114-2,1,27,horse,horse,clock,familiar,familiar,L,horse,Y,rec,7/11/14,13:59,1362,,,,,,,,,,,,,,,,,,,,,,,,,,,,,,,,,,,,,,,,,,,,,,,,,,,,,,,,,,,,,,,,,,,,,71114-2,1,28,bottle,bird,bottle,familiar,familiar,R,bottle,Y,rec,7/11/14,13:59,1933,,,,,,,,,,,,,,,,,,,,,,,,,,,,,,,,,,,,,,,,,,,,,,,,,,,,,,,,,,,,,,,,,,,,,71114-3,1,1,dog,dog,book,familiar,familiar,L,dog,Y,rec,7/11/14,14:33,8206,,,,,,,,,,,,,,,,,,,,,,,,,,,,,,,,,,,,,,,,,,,,,,,,,,,,,,,,,,,,,,,,,,,,,71114-3,1,2,cookie,cookie,baby,familiar,familiar,R,baby,N,rec,7/11/14,14:33,4204,,,,,,,,,,,,,,,,,,,,,,,,,,,,,,,,,,,,,,,,,,,,,,,,,,,,,,,,,,,,,,,,,,,,,71114-3,1,3,car,fep,car,novel,familiar,R,car,Y,MEcontrol,7/11/14,14:33,8865,,,,,,,,,,,,,,,,,,,,,,,,,,,,,,,,,,,,,,,,,,,,,,,,,,,,,,,,,,,,,,,,,,,,,71114-3,1,4,dax,dax,cup,novel,familiar,L,dax,Y,MEexperimental,7/11/14,14:33,513,,,,,,,,,,,,,,,,,,,,,,,,,,,,,,,,,,,,,,,,,,,,,,,,,,,,,,,,,,,,,,,,,,,,,71114-3,1,5,frog,pifo,frog,novel,familiar,R,frog,Y,MEcontrol,7/11/14,14:33,9994,,,,,,,,,,,,,,,,,,,,,,,,,,,,,,,,,,,,,,,,,,,,,,,,,,,,,,,,,,,,,,,,,,,,,71114-3,1,6,fill1,na,na,na,na,na,na,na,filler,7/11/14,14:33,na,,,,,,,,,,,,,,,,,,,,,,,,,,,,,,,,,,,,,,,,,,,,,,,,,,,,,,,,,,,,,,,,,,,,,71114-3,1,7,lion,table,lion,familiar,familiar,R,lion,Y,rec,7/11/14,14:33,955,,,,,,,,,,,,,,,,,,,,,,,,,,,,,,,,,,,,,,,,,,,,,,,,,,,,,,,,,,,,,,,,,,,,,71114-3,1,8,modi,modi,shovel,novel,familiar,R,shovel,N,MEexperimental,7/11/14,14:33,510,,,,,,,,,,,,,,,,,,,,,,,,,,,,,,,,,,,,,,,,,,,,,,,,,,,,,,,,,,,,,,,,,,,,,71114-3,1,9,apple,wug,apple,novel,familiar,R,apple,Y,MEcontrol,7/11/14,14:33,20371,,,,,,,,,,,,,,,,,,,,,,,,,,,,,,,,,,,,,,,,,,,,,,,,,,,,,,,,,,,,,,,,,,,,,71114-3,1,10,train,train,dofa,familiar,novel,L,train,Y,MEcontrol,7/11/14,14:33,19691,,,,,,,,,,,,,,,,,,,,,,,,,,,,,,,,,,,,,,,,,,,,,,,,,,,,,,,,,,,,,,,,,,,,,71114-3,1,11,toma,monkey,toma,familiar,novel,L,monkey,N,MEexperimental,7/11/14,14:33,2460,,,,,,,,,,,,,,,,,,,,,,,,,,,,,,,,,,,,,,,,,,,,,,,,,,,,,,,,,,,,,,,,,,,,,71114-3,1,12,fill2,na,na,na,na,na,na,na,filler,7/11/14,14:33,na,,,,,,,,,,,,,,,,,,,,,,,,,,,,,,,,,,,,,,,,,,,,,,,,,,,,,,,,,,,,,,,,,,,,,71114-3,1,13,pifo,frog,pifo,familiar,novel,R,pifo,Y,MEexperimental,7/11/14,14:33,23513,,,,,,,,,,,,,,,,,,,,,,,,,,,,,,,,,,,,,,,,,,,,,,,,,,,,,,,,,,,,,,,,,,,,,71114-3,1,14,cup,cup,dax,familiar,novel,R,dax,N,MEcontrol,7/11/14,14:33,2898,,,,,,,,,,,,,,,,,,,,,,,,,,,,,,,,,,,,,,,,,,,,,,,,,,,,,,,,,,,,,,,,,,,,,71114-3,1,15,kreeb,kreeb,shoe,novel,familiar,L,kreeb,Y,MEexperimental,7/11/14,14:33,1039,,,,,,,,,,,,,,,,,,,,,,,,,,,,,,,,,,,,,,,,,,,,,,,,,,,,,,,,,,,,,,,,,,,,,71114-3,1,16,cat,ball,cat,familiar,familiar,R,cat,Y,rec,7/11/14,14:33,3700,,,,,,,,,,,,,,,,,,,,,,,,,,,,,,,,,,,,,,,,,,,,,,,,,,,,,,,,,,,,,,,,,,,,,71114-3,1,17,monkey,toma,monkey,novel,familiar,R,monkey,Y,MEcontrol,7/11/14,14:33,937,,,,,,,,,,,,,,,,,,,,,,,,,,,,,,,,,,,,,,,,,,,,,,,,,,,,,,,,,,,,,,,,,,,,,71114-3,1,18,fill3,na,na,na,na,na,na,na,filler,7/11/14,14:33,na,,,,,,,,,,,,,,,,,,,,,,,,,,,,,,,,,,,,,,,,,,,,,,,,,,,,,,,,,,,,,,,,,,,,,71114-3,1,19,dofa,dofa,train,novel,familiar,R,train,N,MEexperimental,7/11/14,14:33,657,,,,,,,,,,,,,,,,,,,,,,,,,,,,,,,,,,,,,,,,,,,,,,,,,,,,,,,,,,,,,,,,,,,,,71114-3,1,20,fep,car,fep,familiar,novel,L,car,N,MEexperimental,7/11/14,14:33,6199,,,,,,,,,,,,,,,,,,,,,,,,,,,,,,,,,,,,,,,,,,,,,,,,,,,,,,,,,,,,,,,,,,,,,71114-3,1,21,carrot,carrot,lamp,familiar,familiar,R,lamp,N,rec,7/11/14,14:33,3877,,,,,,,,,,,,,,,,,,,,,,,,,,,,,,,,,,,,,,,,,,,,,,,,,,,,,,,,,,,,,,,,,,,,,71114-4,1,1,dog,dog,book,familiar,familiar,L,dog,Y,rec,7/11/14,14:44,1942,,,,,,,,,,,,,,,,,,,,,,,,,,,,,,,,,,,,,,,,,,,,,,,,,,,,,,,,,,,,,,,,,,,,,71114-4,1,2,cookie,cookie,baby,familiar,familiar,L,cookie,Y,rec,7/11/14,14:44,901,,,,,,,,,,,,,,,,,,,,,,,,,,,,,,,,,,,,,,,,,,,,,,,,,,,,,,,,,,,,,,,,,,,,,71114-4,1,3,car,fep,car,novel,familiar,R,car,Y,MEcontrol,7/11/14,14:44,1239,,,,,,,,,,,,,,,,,,,,,,,,,,,,,,,,,,,,,,,,,,,,,,,,,,,,,,,,,,,,,,,,,,,,,71114-4,1,4,dax,dax,cup,novel,familiar,L,dax,Y,MEexperimental,7/11/14,14:44,1468,,,,,,,,,,,,,,,,,,,,,,,,,,,,,,,,,,,,,,,,,,,,,,,,,,,,,,,,,,,,,,,,,,,,,71114-4,1,5,frog,pifo,frog,novel,familiar,R,frog,Y,MEcontrol,7/11/14,14:44,1248,,,,,,,,,,,,,,,,,,,,,,,,,,,,,,,,,,,,,,,,,,,,,,,,,,,,,,,,,,,,,,,,,,,,,71114-4,1,6,fill1,na,na,na,na,na,na,na,filler,7/11/14,14:44,na,,,,,,,,,,,,,,,,,,,,,,,,,,,,,,,,,,,,,,,,,,,,,,,,,,,,,,,,,,,,,,,,,,,,,71114-4,1,7,lion,table,lion,familiar,familiar,R,lion,Y,rec,7/11/14,14:44,1420,,,,,,,,,,,,,,,,,,,,,,,,,,,,,,,,,,,,,,,,,,,,,,,,,,,,,,,,,,,,,,,,,,,,,71114-4,1,8,modi,modi,shovel,novel,familiar,L,modi,Y,MEexperimental,7/11/14,14:44,1924,,,,,,,,,,,,,,,,,,,,,,,,,,,,,,,,,,,,,,,,,,,,,,,,,,,,,,,,,,,,,,,,,,,,,71114-4,1,9,apple,wug,apple,novel,familiar,R,apple,Y,MEcontrol,7/11/14,14:44,1024,,,,,,,,,,,,,,,,,,,,,,,,,,,,,,,,,,,,,,,,,,,,,,,,,,,,,,,,,,,,,,,,,,,,,71114-4,1,10,train,train,dofa,familiar,novel,L,train,Y,MEcontrol,7/11/14,14:44,1386,,,,,,,,,,,,,,,,,,,,,,,,,,,,,,,,,,,,,,,,,,,,,,,,,,,,,,,,,,,,,,,,,,,,,71114-4,1,11,toma,monkey,toma,familiar,novel,L,monkey,N,MEexperimental,7/11/14,14:44,2368,,,,,,,,,,,,,,,,,,,,,,,,,,,,,,,,,,,,,,,,,,,,,,,,,,,,,,,,,,,,,,,,,,,,,71114-4,1,12,fill2,na,na,na,na,na,na,na,filler,7/11/14,14:44,na,,,,,,,,,,,,,,,,,,,,,,,,,,,,,,,,,,,,,,,,,,,,,,,,,,,,,,,,,,,,,,,,,,,,,71114-4,1,13,pifo,frog,pifo,familiar,novel,R,pifo,Y,MEexperimental,7/11/14,14:44,1263,,,,,,,,,,,,,,,,,,,,,,,,,,,,,,,,,,,,,,,,,,,,,,,,,,,,,,,,,,,,,,,,,,,,,71114-4,1,14,cup,cup,dax,familiar,novel,L,cup,Y,MEcontrol,7/11/14,14:44,839,,,,,,,,,,,,,,,,,,,,,,,,,,,,,,,,,,,,,,,,,,,,,,,,,,,,,,,,,,,,,,,,,,,,,71114-4,1,15,kreeb,kreeb,shoe,novel,familiar,L,kreeb,Y,MEexperimental,7/11/14,14:44,1898,,,,,,,,,,,,,,,,,,,,,,,,,,,,,,,,,,,,,,,,,,,,,,,,,,,,,,,,,,,,,,,,,,,,,71114-4,1,16,cat,ball,cat,familiar,familiar,R,cat,Y,rec,7/11/14,14:44,1170,,,,,,,,,,,,,,,,,,,,,,,,,,,,,,,,,,,,,,,,,,,,,,,,,,,,,,,,,,,,,,,,,,,,,71114-4,1,17,monkey,toma,monkey,novel,familiar,R,monkey,Y,MEcontrol,7/11/14,14:44,1160,,,,,,,,,,,,,,,,,,,,,,,,,,,,,,,,,,,,,,,,,,,,,,,,,,,,,,,,,,,,,,,,,,,,,71114-4,1,18,fill3,na,na,na,na,na,na,na,filler,7/11/14,14:44,na,,,,,,,,,,,,,,,,,,,,,,,,,,,,,,,,,,,,,,,,,,,,,,,,,,,,,,,,,,,,,,,,,,,,,71114-4,1,19,dofa,dofa,train,novel,familiar,L,dofa,Y,MEexperimental,7/11/14,14:44,1290,,,,,,,,,,,,,,,,,,,,,,,,,,,,,,,,,,,,,,,,,,,,,,,,,,,,,,,,,,,,,,,,,,,,,71114-4,1,20,fep,car,fep,familiar,novel,R,fep,Y,MEexperimental,7/11/14,14:44,1228,,,,,,,,,,,,,,,,,,,,,,,,,,,,,,,,,,,,,,,,,,,,,,,,,,,,,,,,,,,,,,,,,,,,,71114-4,1,21,carrot,carrot,lamp,familiar,familiar,L,carrot,Y,rec,7/11/14,14:44,1366,,,,,,,,,,,,,,,,,,,,,,,,,,,,,,,,,,,,,,,,,,,,,,,,,,,,,,,,,,,,,,,,,,,,,71114-4,1,22,shovel,shovel,modi,familiar,novel,L,shovel,Y,MEcontrol,7/11/14,14:44,1077,,,,,,,,,,,,,,,,,,,,,,,,,,,,,,,,,,,,,,,,,,,,,,,,,,,,,,,,,,,,,,,,,,,,,71114-4,1,23,hammer,sheep,hammer,familiar,familiar,R,hammer,Y,rec,7/11/14,14:44,1190,,,,,,,,,,,,,,,,,,,,,,,,,,,,,,,,,,,,,,,,,,,,,,,,,,,,,,,,,,,,,,,,,,,,,71114-4,1,24,fill4,na,na,na,na,na,na,na,filler,7/11/14,14:44,na,,,,,,,,,,,,,,,,,,,,,,,,,,,,,,,,,,,,,,,,,,,,,,,,,,,,,,,,,,,,,,,,,,,,,71114-4,1,25,wug,apple,wug,familiar,novel,R,wug,Y,MEexperimental,7/11/14,14:44,1313,,,,,,,,,,,,,,,,,,,,,,,,,,,,,,,,,,,,,,,,,,,,,,,,,,,,,,,,,,,,,,,,,,,,,71114-4,1,26,shoe,shoe,kreeb,familiar,novel,L,shoe,Y,MEcontrol,7/11/14,14:44,1905,,,,,,,,,,,,,,,,,,,,,,,,,,,,,,,,,,,,,,,,,,,,,,,,,,,,,,,,,,,,,,,,,,,,,71114-4,1,27,horse,horse,clock,familiar,familiar,L,horse,Y,rec,7/11/14,14:44,1495,,,,,,,,,,,,,,,,,,,,,,,,,,,,,,,,,,,,,,,,,,,,,,,,,,,,,,,,,,,,,,,,,,,,,71114-4,1,28,bottle,bird,bottle,familiar,familiar,R,bottle,Y,rec,7/11/14,14:44,1159,,,,,,,,,,,,,,,,,,,,,,,,,,,,,,,,,,,,,,,,,,,,,,,,,,,,,,,,,,,,,,,,,,,,,71114-5,1,1,dog,dog,book,familiar,familiar,R,book,N,rec,7/11/14,14:57,16268,,,,,,,,,,,,,,,,,,,,,,,,,,,,,,,,,,,,,,,,,,,,,,,,,,,,,,,,,,,,,,,,,,,,,71114-5,1,2,cookie,cookie,baby,familiar,familiar,R,baby,N,rec,7/11/14,14:57,10598,,,,,,,,,,,,,,,,,,,,,,,,,,,,,,,,,,,,,,,,,,,,,,,,,,,,,,,,,,,,,,,,,,,,,71114-5,1,3,car,fep,car,novel,familiar,L,fep,N,MEcontrol,7/11/14,14:57,6095,,,,,,,,,,,,,,,,,,,,,,,,,,,,,,,,,,,,,,,,,,,,,,,,,,,,,,,,,,,,,,,,,,,,,71114-5,1,4,dax,dax,cup,novel,familiar,R,cup,N,MEexperimental,7/11/14,14:57,8754,,,,,,,,,,,,,,,,,,,,,,,,,,,,,,,,,,,,,,,,,,,,,,,,,,,,,,,,,,,,,,,,,,,,,71114-5,1,5,frog,pifo,frog,novel,familiar,R,frog,Y,MEcontrol,7/11/14,14:57,886,,,,,,,,,,,,,,,,,,,,,,,,,,,,,,,,,,,,,,,,,,,,,,,,,,,,,,,,,,,,,,,,,,,,,71114-5,1,6,fill1,na,na,na,na,na,na,na,filler,7/11/14,14:57,na,,,,,,,,,,,,,,,,,,,,,,,,,,,,,,,,,,,,,,,,,,,,,,,,,,,,,,,,,,,,,,,,,,,,,71114-5,1,7,lion,table,lion,familiar,familiar,R,lion,Y,rec,7/11/14,14:57,8778,,,,,,,,,,,,,,,,,,,,,,,,,,,,,,,,,,,,,,,,,,,,,,,,,,,,,,,,,,,,,,,,,,,,,71114-5,1,8,modi,modi,shovel,novel,familiar,R,shovel,N,MEexperimental,7/11/14,14:57,2179,,,,,,,,,,,,,,,,,,,,,,,,,,,,,,,,,,,,,,,,,,,,,,,,,,,,,,,,,,,,,,,,,,,,,71114-5,1,9,apple,wug,apple,novel,familiar,R,apple,Y,MEcontrol,7/11/14,14:57,1199,,,,,,,,,,,,,,,,,,,,,,,,,,,,,,,,,,,,,,,,,,,,,,,,,,,,,,,,,,,,,,,,,,,,,71114-5,1,10,train,train,dofa,familiar,novel,R,dofa,N,MEcontrol,7/11/14,14:57,6704,,,,,,,,,,,,,,,,,,,,,,,,,,,,,,,,,,,,,,,,,,,,,,,,,,,,,,,,,,,,,,,,,,,,,71114-5,1,11,toma,monkey,toma,familiar,novel,L,monkey,N,MEexperimental,7/11/14,14:57,18285,,,,,,,,,,,,,,,,,,,,,,,,,,,,,,,,,,,,,,,,,,,,,,,,,,,,,,,,,,,,,,,,,,,,,71114-5,1,12,fill2,na,na,na,na,na,na,na,filler,7/11/14,14:57,na,,,,,,,,,,,,,,,,,,,,,,,,,,,,,,,,,,,,,,,,,,,,,,,,,,,,,,,,,,,,,,,,,,,,,71114-5,1,13,pifo,frog,pifo,familiar,novel,R,pifo,Y,MEexperimental,7/11/14,14:57,4036,,,,,,,,,,,,,,,,,,,,,,,,,,,,,,,,,,,,,,,,,,,,,,,,,,,,,,,,,,,,,,,,,,,,,71114-5,1,14,cup,cup,dax,familiar,novel,R,dax,N,MEcontrol,7/11/14,14:57,2057,,,,,,,,,,,,,,,,,,,,,,,,,,,s,2,1,bottle,bottle,bird,familiar,familiar,L,bottle,Y,rec,7/13/14,16:37,1405s,2,1,bottle,bottle,bird,familiar,familiar,L,bottle,Y,rec,7/13/14,16:40,1123,,,,,,,,,,,,,,s,2,1,bottle,bottle,bird,familiar,familiar,L,bottle,Y,rec,7/13/14,16:42,1240,,,,,,,,,,,,,,,,,,,,,,,,,,,,,,,,,,,,,,,,,,,,,,,,,,,,,,,,,,,,,,,,,,,,,s,2,2,horse,clock,horse,familiar,familiar,R,horse,Y,rec,7/13/14,16:42,1316,,,,,,,,,,,,,,,,,,,,,,,,,,,,,,,,,,,,,,,,,,,,,,,,,,,,,,,,,,,,,,,,,,,,,s2,2,1,bottle,bottle,bird,familiar,familiar,L,bottle,Y,rec,7/13/14,16:43,1197,,,,,,,,,,,,,,,,,,,,,,,,,,,,,,,,,,,,,,,,,,,,,,,,,,,,,,,,,,,,,,,,,,,,,s2,2,2,horse,clock,horse,familiar,familiar,R,horse,Y,rec,7/13/14,16:43,1309,,,,,,,,,,,,,,,,,,,,,,,,,,,,,,,,,,,,,,,,,,,,,,,,,,,,,,,71414-1,1,1,dog,dog,book,familiar,familiar,L,dog,Y,rec,7/14/14,11:29,263371414-1,1,2,cookie,cookie,baby,familiar,familiar,L,cookie,Y,rec,7/14/14,11:29,1389,,,,,,,,,,,,,,,,,,,,,,,,,,,,,,,,,,,,,,,,,,,,,,,,,,,,,,,,,,,,,,,,,,,,,71414-1,1,3,car,fep,car,novel,familiar,R,car,Y,MEcontrol,7/14/14,11:29,1133,,,,,,,,,,,,,,,,,,,,,,,,,,,,,,,,,,,,,,,,,,,,,,,,,,,,,,,,,,,,,,,,,,,,,71414-1,1,4,dax,dax,cup,novel,familiar,L,dax,Y,MEexperimental,7/14/14,11:29,3017,,,,,,,,,,,,,,,,,,,,,,,,,,,,,,,,,,,,,,,,,,,,,,,,,,,,,,,,,,,,,,,,,,,,,71414-1,1,5,frog,pifo,frog,novel,familiar,R,frog,Y,MEcontrol,7/14/14,11:29,989,,,,,,,,,,,,,,,,,,,,,,,,,,,,,,,,,,,,,,,,,,,,,,,,,,,,,,,,,,,,,,,,,,,,,71414-1,1,6,fill1,na,na,na,na,na,na,na,filler,7/14/14,11:29,na,,,,,,,,,,,,,,,,,,,,,,,,,,,,,,,,,,,,,,,,,,,,,,,,,,,,,,,,,,,,,,,,,,,,,71414-1,1,7,lion,table,lion,familiar,familiar,R,lion,Y,rec,7/14/14,11:29,1371,,,,,,,,,,,,,,,,,,,,,,,,,,,,,,,,,,,,,,,,,,,,,,,,,,,,,,,,,,,,,,,,,,,,,71414-1,1,8,modi,modi,shovel,novel,familiar,L,modi,Y,MEexperimental,7/14/14,11:29,1641,,,,,,,,,,,,,,,,,,,,,,,,,,,,,,,,,,,,,,,,,,,,,,,,,,,,,,,,,,,,,,,,,,,,,71414-1,1,9,apple,wug,apple,novel,familiar,R,apple,Y,MEcontrol,7/14/14,11:29,1738,,,,,,,,,,,,,,,,,,,,,,,,,,,,,,,,,,,,,,,,,,,,,,,,,,,,,,,,,,,,,,,,,,,,,71414-1,1,10,train,train,dofa,familiar,novel,L,train,Y,MEcontrol,7/14/14,11:29,930,,,,,,,,,,,,,,,,,,,,,,,,,,,,,,,,,,,,,,,,,,,,,,,,,,,,,,,,,,,,,,,,,,,,,71414-1,1,11,toma,monkey,toma,familiar,novel,R,toma,Y,MEexperimental,7/14/14,11:29,1776,,,,,,,,,,,,,,,,,,,,,,,,,,,,,,,,,,,,,,,,,,,,,,,,,,,,,,,,,,,,,,,,,,,,,71414-1,1,12,fill2,na,na,na,na,na,na,na,filler,7/14/14,11:29,na,,,,,,,,,,,,,,,,,,,,,,,,,,,,,,,,,,,,,,,,,,,,,,,,,,,,,,,,,,,,,,,,,,,,,71414-1,1,13,pifo,frog,pifo,familiar,novel,L,frog,N,MEexperimental,7/14/14,11:29,1769,,,,,,,,,,,,,,,,,,,,,,,,,,,,,,,,,,,,,,,,,,,,,,,,,,,,,,,,,,,,,,,,,,,,,71414-1,1,14,cup,cup,dax,familiar,novel,L,cup,Y,MEcontrol,7/14/14,11:29,943,,,,,,,,,,,,,,,,,,,,,,,,,,,,,,,,,,,,,,,,,,,,,,,,,,,,,,,,,,,,,,,,,,,,,71414-1,1,15,kreeb,kreeb,shoe,novel,familiar,R,shoe,N,MEexperimental,7/14/14,11:29,1317,,,,,,,,,,,,,,,,,,,,,,,,,,,,,,,,,,,,,,,,,,,,,,,,,,,,,,,,,,,,,,,,,,,,,71414-1,1,16,cat,ball,cat,familiar,familiar,R,cat,Y,rec,7/14/14,11:29,2815,,,,,,,,,,,,,,,,,,,,,,,,,,,,,,,,,,,,,,,,,,,,,,,,,,,,,,,,,,,,,,,,,,,,,71414-1,1,17,monkey,toma,monkey,novel,familiar,R,monkey,Y,MEcontrol,7/14/14,11:29,1365,,,,,,,,,,,,,,,,,,,,,,,,,,,,,,,,,,,,,,,,,,,,,,,,,,,,,,,,,,,,,,,,,,,,,71414-1,1,18,fill3,na,na,na,na,na,na,na,filler,7/14/14,11:29,na,,,,,,,,,,,,,,,,,,,,,,,,,,,,,,,,,,,,,,,,,,,,,,,,,,,,,,,,,,,,,,,,,,,,,71414-1,1,19,dofa,dofa,train,novel,familiar,L,dofa,Y,MEexperimental,7/14/14,11:29,1707,,,,,,,,,,,,,,,,,,,,,,,,,,,,,,,,,,,,,,,,,,,,,,,,,,,,,,,,,,,,,,,,,,,,,71414-1,1,20,fep,car,fep,familiar,novel,R,fep,Y,MEexperimental,7/14/14,11:29,4375,,,,,,,,,,,,,,,,,,,,,,,,,,,,,,,,,,,,,,,,,,,,,,,,,,,,,,,,,,,,,,,,,,,,,71414-1,1,21,carrot,carrot,lamp,familiar,familiar,L,carrot,Y,rec,7/14/14,11:29,1040,,,,,,,,,,,,,,,,,,,,,,,,,,,,,,,,,,,,,,,,,,,,,,,,,,,,,,,,,,,,,,,,,,,,,71414-1,1,22,shovel,shovel,modi,familiar,novel,R,modi,N,MEcontrol,7/14/14,11:29,1260,,,,,,,,,,,,,,,,,,,,,,,,,,,,,,,,,,,,,,,,,,,,,,,,,,,,,,,,,,,,,,,,,,,,,71414-1,1,23,hammer,sheep,hammer,familiar,familiar,R,hammer,Y,rec,7/14/14,11:29,3486,,,,,,,,,,,,,,,,,,,,,,,,,,,,,,,,,,,,,,,,,,,,,,,,,,,,,,,,,,,,,,,,,,,,,71414-1,1,24,fill4,na,na,na,na,na,na,na,filler,7/14/14,11:29,na,,,,,,,,,,,,,,,,,,,,,,,,,,,,,,,,,,,,,,,,,,,,,,,,,,,,,,,,,,,,,,,,,,,,,71414-1,1,25,wug,apple,wug,familiar,novel,R,wug,Y,MEexperimental,7/14/14,11:29,1649,,,,,,,,,,,,,,,,,,,,,,,,,,,,,,,,,,,,,,,,,,,,,,,,,,,,,,,,,,,,,,,,,,,,,71414-1,1,26,shoe,shoe,kreeb,familiar,novel,L,shoe,Y,MEcontrol,7/14/14,11:29,2086,,,,,,,,,,,,,,,,,,,,,,,,,,,,,,,,,,,,,,,,,,,,,,,,,,,,,,,,,,,,,,,,,,,,,71414-1,1,27,horse,horse,clock,familiar,familiar,L,horse,Y,rec,7/14/14,11:29,3058,,,,,,,,,,,,,,,,,,,,,,,,,,,,,,,,,,,,,,,,,,,,,,,,,,,,,,,,,,,,,,,,,,,,,71414-1,1,28,bottle,bird,bottle,familiar,familiar,R,bottle,Y,rec,7/14/14,11:29,1268,,,,,,,,,,,,,,,,,,,,,,,,,,,,,,,,,,,,,,,,,,,,,,,,,,,,,,,,,,,,,,,,,,,,,71414-2,1,1,dog,dog,book,familiar,familiar,L,dog,Y,rec,7/14/14,11:39,631,,,,,,,,,,,,,,,,,,,,,,,,,,,,,,,,,,,,,,,,,,,,,,,,,,,,,,,,,,,,,,,,,,,,,71414-2,1,2,cookie,cookie,baby,familiar,familiar,L,cookie,Y,rec,7/14/14,11:39,1692,,,,,,,,,,,,,,,,,,,,,,,,,,,,,,,,,,,,,,,,,,,,,,,,,,,,,,,,,,,,,,,,,,,,,71414-2,1,3,car,fep,car,novel,familiar,R,car,Y,MEcontrol,7/14/14,11:39,1168,,,,,,,,,,,,,,,,,,,,,,,,,,,,,,,,,,,,,,,,,,,,,,,,,,,,,,,,,,,,,,,,,,,,,71414-2,1,4,dax,dax,cup,novel,familiar,L,dax,Y,MEexperimental,7/14/14,11:39,1710,,,,,,,,,,,,,,,,,,,,,,,,,,,,,,,,,,,,,,,,,,,,,,,,,,,,,,,,,,,,,,,,,,,,,71414-2,1,5,frog,pifo,frog,novel,familiar,R,frog,Y,MEcontrol,7/14/14,11:39,1770,,,,,,,,,,,,,,,,,,,,,,,,,,,,,,,,,,,,,,,,,,,,,,,,,,,,,,,,,,,,,,,,,,,,,71414-2,1,6,fill1,na,na,na,na,na,na,na,filler,7/14/14,11:39,na,,,,,,,,,,,,,,,,,,,,,,,,,,,,,,,,,,,,,,,,,,,,,,,,,,,,,,,,,,,,,,,,,,,,,71414-2,1,7,lion,table,lion,familiar,familiar,R,lion,Y,rec,7/14/14,11:39,1962,,,,,,,,,,,,,,,,,,,,,,,,,,,,,,,,,,,,,,,,,,,,,,,,,,,,,,,,,,,,,,,,,,,,,71414-2,1,8,modi,modi,shovel,novel,familiar,L,modi,Y,MEexperimental,7/14/14,11:39,1961,,,,,,,,,,,,,,,,,,,,,,,,,,,,,,,,,,,,,,,,,,,,,,,,,,,,,,,,,,,,,,,,,,,,,71414-2,1,9,apple,wug,apple,novel,familiar,R,apple,Y,MEcontrol,7/14/14,11:39,1588,,,,,,,,,,,,,,,,,,,,,,,,,,,,,,,,,,,,,,,,,,,,,,,,,,,,,,,,,,,,,,,,,,,,,71414-2,1,10,train,train,dofa,familiar,novel,L,train,Y,MEcontrol,7/14/14,11:39,1693,,,,,,,,,,,,,,,,,,,,,,,,,,,,,,,,,,,,,,,,,,,,,,,,,,,,,,,,,,,,,,,,,,,,,71414-2,1,11,toma,monkey,toma,familiar,novel,L,monkey,N,MEexperimental,7/14/14,11:39,2797,,,,,,,,,,,,,,,,,,,,,,,,,,,,,,,,,,,,,,,,,,,,,,,,,,,,,,,,,,,,,,,,,,,,,71414-2,1,12,fill2,na,na,na,na,na,na,na,filler,7/14/14,11:39,na,,,,,,,,,,,,,,,,,,,,,,,,,,,,,,,,,,,,,,,,,,,,,,,,,,,,,,,,,,,,,,,,,,,,,71414-2,1,13,pifo,frog,pifo,familiar,novel,R,pifo,Y,MEexperimental,7/14/14,11:39,1962,,,,,,,,,,,,,,,,,,,,,,,,,,,,,,,,,,,,,,,,,,,,,,,,,,,,,,,,,,,,,,,,,,,,,71414-2,1,14,cup,cup,dax,familiar,novel,L,cup,Y,MEcontrol,7/14/14,11:39,1679,,,,,,,,,,,,,,,,,,,,,,,,,,,,,,,,,,,,,,,,,,,,,,,,,,,,,,,,,,,,,,,,,,,,,71414-2,1,15,kreeb,kreeb,shoe,novel,familiar,R,shoe,N,MEexperimental,7/14/14,11:39,4443,,,,,,,,,,,,,,,,,,,,,,,,,,,,,,,,,,,,,,,,,,,,,,,,,,,,,,,,,,,,,,,,,,,,,71414-2,1,16,cat,ball,cat,familiar,familiar,R,cat,Y,rec,7/14/14,11:39,1505,,,,,,,,,,,,,,,,,,,,,,,,,,,,,,,,,,,,,,,,,,,,,,,,,,,,,,,,,,,,,,,,,,,,,71414-2,1,17,monkey,toma,monkey,novel,familiar,R,monkey,Y,MEcontrol,7/14/14,11:39,1597,,,,,,,,,,,,,,,,,,,,,,,,,,,,,,,,,,,,,,,,,,,,,,,,,,,,,,,,,,,,,,,,,,,,,71414-2,1,18,fill3,na,na,na,na,na,na,na,filler,7/14/14,11:39,na,,,,,,,,,,,,,,,,,,,,,,,,,,,,,,,,,,,,,,,,,,,,,,,,,,,,,,,,,,,,,,,,,,,,,71414-2,1,19,dofa,dofa,train,novel,familiar,L,dofa,Y,MEexperimental,7/14/14,11:39,2718,,,,,,,,,,,,,,,,,,,,,,,,,,,,,,,,,,,,,,,,,,,,,,,,,,,,,,,,,,,,,,,,,,,,,71414-2,1,20,fep,car,fep,familiar,novel,L,car,N,MEexperimental,7/14/14,11:39,8564,,,,,,,,,,,,,,,,,,,,,,,,,,,,,,,,,,,,,,,,,,,,,,,,,,,,,,,,,,,,,,,,,,,,,71414-2,1,21,carrot,carrot,lamp,familiar,familiar,L,carrot,Y,rec,7/14/14,11:39,1959,,,,,,,,,,,,,,,,,,,,,,,,,,,,,,,,,,,,,,,,,,,,,,,,,,,,,,,,,,,,,,,,,,,,,71414-2,1,22,shovel,shovel,modi,familiar,novel,R,modi,N,MEcontrol,7/14/14,11:39,971,,,,,,,,,,,,,,,,,,,,,,,,,,,,,,,,,,,,,,,,,,,,,,,,,,,,,,,,,,,,,,,,,,,,,71414-2,1,24,fill4,na,na,na,na,na,na,na,filler,7/14/14,11:39,na,,,,,,,,,,,,,,,,,,,,,,,,,,,,,,,,,,,,,,,,,,,,,,,,,,,,,,,,,,,,,,,,,,,,,71414-2,1,23,hammer,sheep,hammer,familiar,familiar,R,hammer,Y,rec,7/14/14,11:39,2094,,,,,,,,,,,,,,,,,,,,,,,,,,,,,,,,,,,,,,,,,,,,,,,,,,,,,,,,,,,,,,,,,,,,,71414-2,1,25,wug,apple,wug,familiar,novel,R,wug,Y,MEexperimental,7/14/14,11:39,1564,,,,,,,,,,,,,,,,,,,,,,,,,,,,,,,,,,,,,,,,,,,,,,,,,,,,,,,,,,,,,,,,,,,,,71414-2,1,26,shoe,shoe,kreeb,familiar,novel,L,shoe,Y,MEcontrol,7/14/14,11:39,2606,,,,,,,,,,,,,,,,,,,,,,,,,,,,,,,,,,,,,,,,,,,,,,,,,,,,,,,,,,,,,,,,,,,,,71414-2,1,27,horse,horse,clock,familiar,familiar,L,horse,Y,rec,7/14/14,11:39,1607,,,,,,,,,,,,,,,,,,,,,,,,,,,,,,,,,,,,,,,,,,,,,,,,,,,,,,,,,,,,,,,,,,,,,71414-2,1,28,bottle,bird,bottle,familiar,familiar,R,bottle,Y,rec,7/14/14,11:39,2669,,,,,,,,,,,,,,,,,,,,,,,,,,,,,,,,,,,,,,,,,,,,,,,,,,,,,,,,,,,,,,,,,,,,,71414-3,1,1,dog,dog,book,familiar,familiar,L,dog,Y,rec,7/14/14,11:50,1551,,,,,,,,,,,,,,,,,,,,,,,,,,,,,,,,,,,,,,,,,,,,,,,,,,,,,,,,,,,,,,,,,,,,,71414-3,1,2,cookie,cookie,baby,familiar,familiar,L,cookie,Y,rec,7/14/14,11:50,1028,,,,,,,,,,,,,,,,,,,,,,,,,,,,,,,,,,,,,,,,,,,,,,,,,,,,,,,,,,,,,,,,,,,,,71414-3,1,3,car,fep,car,novel,familiar,R,car,Y,MEcontrol,7/14/14,11:50,1166,,,,,,,,,,,,,,,,,,,,,,,,,,,,,,,,,,,,,,,,,,,,,,,,,,,,,,,,,,,,,,,,,,,,,71414-3,1,4,dax,dax,cup,novel,familiar,L,dax,Y,MEexperimental,7/14/14,11:50,4889,,,,,,,,,,,,,,,,,,,,,,,,,,,,,,,,,,,,,,,,,,,,,,,,,,,,,,,,,,,,,,,,,,,,,71414-3,1,5,frog,pifo,frog,novel,familiar,R,frog,Y,MEcontrol,7/14/14,11:50,2159,,,,,,,,,,,,,,,,,,,,,,,,,,,,,,,,,,,,,,,,,,,,,,,,,,,,,,,,,,,,,,,,,,,,,71414-3,1,6,fill1,na,na,na,na,na,na,na,filler,7/14/14,11:50,na,,,,,,,,,,,,,,,,,,,,,,,,,,,,,,,,,,,,,,,,,,,,,,,,,,,,,,,,,,,,,,,,,,,,,71414-3,1,7,lion,table,lion,familiar,familiar,R,lion,Y,rec,7/14/14,11:50,1386,,,,,,,,,,,,,,,,,,,,,,,,,,,,,,,,,,,,,,,,,,,,,,,,,,,,,,,,,,,,,,,,,,,,,71414-3,1,8,modi,modi,shovel,novel,familiar,L,modi,Y,MEexperimental,7/14/14,11:50,5391,,,,,,,,,,,,,,,,,,,,,,,,,,,,,,,,,,,,,,,,,,,,,,,,,,,,,,,,,,,,,,,,,,,,,71414-3,1,9,apple,wug,apple,novel,familiar,R,apple,Y,MEcontrol,7/14/14,11:50,1142,,,,,,,,,,,,,,,,,,,,,,,,,,,,,,,,,,,,,,,,,,,,,,,,,,,,,,,,,,,,,,,,,,,,,71414-3,1,10,train,train,dofa,familiar,novel,L,train,Y,MEcontrol,7/14/14,11:50,1276,,,,,,,,,,,,,,,,,,,,,,,,,,,,,,,,,,,,,,,,,,,,,,,,,,,,,,,,,,,,,,,,,,,,,71414-3,1,11,toma,monkey,toma,familiar,novel,R,toma,Y,MEexperimental,7/14/14,11:50,2017,,,,,,,,,,,,,,,,,,,,,,,,,,,,,,,,,,,,,,,,,,,,,,,,,,,,,,,,,,,,,,,,,,,,,71414-3,1,12,fill2,na,na,na,na,na,na,na,filler,7/14/14,11:50,na,,,,,,,,,,,,,,,,,,,,,,,,,,,,,,,,,,,,,,,,,,,,,,,,,,,,,,,,,,,,,,,,,,,,,71414-3,1,13,pifo,frog,pifo,familiar,novel,R,pifo,Y,MEexperimental,7/14/14,11:50,1546,,,,,,,,,,,,,,,,,,,,,,,,,,,,,,,,,,,,,,,,,,,,,,,,,,,,,,,,,,,,,,,,,,,,,71414-3,1,14,cup,cup,dax,familiar,novel,L,cup,Y,MEcontrol,7/14/14,11:50,925,,,,,,,,,,,,,,,,,,,,,,,,,,,,,,,,,,,,,,,,,,,,,,,,,,,,,,,,,,,,,,,,,,,,,71414-3,1,15,kreeb,kreeb,shoe,novel,familiar,L,kreeb,Y,MEexperimental,7/14/14,11:50,2234,,,,,,,,,,,,,,,,,,,,,,,,,,,,,,,,,,,,,,,,,,,,,,,,,,,,,,,,,,,,,,,,,,,,,71414-3,1,16,cat,ball,cat,familiar,familiar,R,cat,Y,rec,7/14/14,11:50,1634,,,,,,,,,,,,,,,,,,,,,,,,,,,,,,,,,,,,,,,,,,,,,,,,,,,,,,,,,,,,,,,,,,,,,71414-3,1,18,fill3,na,na,na,na,na,na,na,filler,7/14/14,11:50,na,,,,,,,,,,,,,,,,,,,,,,,,,,,,,,,,,,,,,,,,,,,,,,,,,,,,,,,,,,,,,,,,,,,,,71414-3,1,17,monkey,toma,monkey,novel,familiar,R,monkey,Y,MEcontrol,7/14/14,11:50,908,,,,,,,,,,,,,,,,,,,,,,,,,,,,,,,,,,,,,,,,,,,,,,,,,,,,,,,,,,,,,,,,,,,,,71414-3,1,19,dofa,dofa,train,novel,familiar,L,dofa,Y,MEexperimental,7/14/14,11:50,1580,,,,,,,,,,,,,,,,,,,,,,,,,,,,,,,,,,,,,,,,,,,,,,,,,,,,,,,,,,,,,,,,,,,,,71414-3,1,20,fep,car,fep,familiar,novel,R,fep,Y,MEexperimental,7/14/14,11:50,1351,,,,,,,,,,,,,,,,,,,,,,,,,,,,,,,,,,,,,,,,,,,,,,,,,,,,,,,,,,,,,,,,,,,,,71414-3,1,21,carrot,carrot,lamp,familiar,familiar,L,carrot,Y,rec,7/14/14,11:50,1598,,,,,,,,,,,,,,,,,,,,,,,,,,,,,,,,,,,,,,,,,,,,,,,,,,,,,,,,,,,,,,,,,,,,,71414-3,1,22,shovel,shovel,modi,familiar,novel,L,shovel,Y,MEcontrol,7/14/14,11:50,954,,,,,,,,,,,,,,,,,,,,,,,,,,,,,,,,,,,,,,,,,,,,,,,,,,,,,,,,,,,,,,,,,,,,,71414-3,1,24,fill4,na,na,na,na,na,na,na,filler,7/14/14,11:50,na,,,,,,,,,,,,,,,,,,,,,,,,,,,,,,,,,,,,,,,,,,,,,,,,,,,,,,,,,,,,,,,,,,,,,71414-3,1,23,hammer,sheep,hammer,familiar,familiar,R,hammer,Y,rec,7/14/14,11:50,1380,,,,,,,,,,,,,,,,,,,,,,,,,,,,,,,,,,,,,,,,,,,,,,,,,,,,,,,,,,,,,,,,,,,,,71414-3,1,25,wug,apple,wug,familiar,novel,R,wug,Y,MEexperimental,7/14/14,11:50,1127,,,,,,,,,,,,,,,,,,,,,,,,,,,,,,,,,,,,,,,,,,,,,,,,,,,,,,,,,,,,,,,,,,,,,71414-3,1,26,shoe,shoe,kreeb,familiar,novel,L,shoe,Y,MEcontrol,7/14/14,11:50,6824,,,,,,,,,,,,,,,,,,,,,,,,,,,,,,,,,,,,,,,,,,,,,,,,,,,,,,,,,,,,,,,,,,,,,71414-3,1,27,horse,horse,clock,familiar,familiar,L,horse,Y,rec,7/14/14,11:50,1837,,,,,,,,,,,,,,,,,,,,,,,,,,,,,,,,,,,,,,,,,,,,,,,,,,,,,,,,,,,,,,,,,,,,,71414-3,1,28,bottle,bird,bottle,familiar,familiar,R,bottle,Y,rec,7/14/14,11:50,2153,,,,,,,,,,,,,,,,,,,,,,,,,,,,,,,,,,,,,,,,,,,,,,,,,,,,,,,,,,,,,,,,,,,,,71414-4,1,1,dog,dog,book,familiar,familiar,L,dog,Y,rec,7/14/14,12:06,1476,,,,,,,,,,,,,,,,,,,,,,,,,,,,,,,,,,,,,,,,,,,,,,,,,,,,,,,,,,,,,,,,,,,,,71414-4,1,2,cookie,cookie,baby,familiar,familiar,L,cookie,Y,rec,7/14/14,12:06,1266,,,,,,,,,,,,,,,,,,,,,,,,,,,,,,,,,,,,,,,,,,,,,,,,,,,,,,,,,,,,,,,,,,,,,71414-4,1,3,car,fep,car,novel,familiar,R,car,Y,MEcontrol,7/14/14,12:06,1251,,,,,,,,,,,,,,,,,,,,,,,,,,,,,,,,,,,,,,,,,,,,,,,,,,,,,,,,,,,,,,,,,,,,,71414-4,1,4,dax,dax,cup,novel,familiar,L,dax,Y,MEexperimental,7/14/14,12:06,1668,,,,,,,,,,,,,,,,,,,,,,,,,,,,,,,,,,,,,,,,,,,,,,,,,,,,,,,,,,,,,,,,,,,,,71414-4,1,5,frog,pifo,frog,novel,familiar,R,frog,Y,MEcontrol,7/14/14,12:06,1598,,,,,,,,,,,,,,,,,,,,,,,,,,,,,,,,,,,,,,,,,,,,,,,,,,,,,,,,,,,,,,,,,,,,,71414-4,1,6,fill1,na,na,na,na,na,na,na,filler,7/14/14,12:06,na,,,,,,,,,,,,,,,,,,,,,,,,,,,,,,,,,,,,,,,,,,,,,,,,,,,,,,,,,,,,,,,,,,,,,71414-4,1,7,lion,table,lion,familiar,familiar,R,lion,Y,rec,7/14/14,12:06,1703,,,,,,,,,,,,,,,,,,,,,,,,,,,,,,,,,,,,,,,,,,,,,,,,,,,,,,,,,,,,,,,,,,,,,71414-4,1,8,modi,modi,shovel,novel,familiar,L,modi,Y,MEexperimental,7/14/14,12:06,2232,,,,,,,,,,,,,,,,,,,,,,,,,,,,,,,,,,,,,,,,,,,,,,,,,,,,,,,,,,,,,,,,,,,,,71414-4,1,9,apple,wug,apple,novel,familiar,R,apple,Y,MEcontrol,7/14/14,12:06,1363,,,,,,,,,,,,,,,,,,,,,,,,,,,,,,,,,,,,,,,,,,,,,,,,,,,,,,,,,,,,,,,,,,,,,71414-4,1,10,train,train,dofa,familiar,novel,L,train,Y,MEcontrol,7/14/14,12:06,1342,,,,,,,,,,,,,,,,,,,,,,,,,,,,,,,,,,,,,,,,,,,,,,,,,,,,,,,,,,,,,,,,,,,,,71414-4,1,11,toma,monkey,toma,familiar,novel,R,toma,Y,MEexperimental,7/14/14,12:06,2360,,,,,,,,,,,,,,,,,,,,,,,,,,,,,,,,,,,,,,,,,,,,,,,,,,,,,,,,,,,,,,,,,,,,,71414-4,1,12,fill2,na,na,na,na,na,na,na,filler,7/14/14,12:06,na,,,,,,,,,,,,,,,,,,,,,,,,,,,,,,,,,,,,,,,,,,,,,,,,,,,,,,,,,,,,,,,,,,,,,71414-4,1,13,pifo,frog,pifo,familiar,novel,R,pifo,Y,MEexperimental,7/14/14,12:06,1889,,,,,,,,,,,,,,,,,,,,,,,,,,,,,,,,,,,,,,,,,,,,,,,,,,,,,,,,,,,,,,,,,,,,,71414-4,1,14,cup,cup,dax,familiar,novel,L,cup,Y,MEcontrol,7/14/14,12:06,1400,,,,,,,,,,,,,,,,,,,,,,,,,,,,,,,,,,,,,,,,,,,,,,,,,,,,,,,,,,,,,,,,,,,,,71414-4,1,15,kreeb,kreeb,shoe,novel,familiar,L,kreeb,Y,MEexperimental,7/14/14,12:06,2221,,,,,,,,,,,,,,,,,,,,,,,,,,,,,,,,,,,,,,,,,,,,,,,,,,,,,,,,,,,,,,,,,,,,,71414-4,1,16,cat,ball,cat,familiar,familiar,R,cat,Y,rec,7/14/14,12:06,1746,,,,,,,,,,,,,,,,,,,,,,,,,,,,,,,,,,,,,,,,,,,,,,,,,,,,,,,,,,,,,,,,,,,,,71414-4,1,17,monkey,toma,monkey,novel,familiar,R,monkey,Y,MEcontrol,7/14/14,12:06,1432,,,,,,,,,,,,,,,,,,,,,,,,,,,,,,,,,,,,,,,,,,,,,,,,,,,,,,,,,,,,,,,,,,,,,71414-4,1,18,fill3,na,na,na,na,na,na,na,filler,7/14/14,12:06,na,,,,,,,,,,,,,,,,,,,,,,,,,,,,,,,,,,,,,,,,,,,,,,,,,,,,,,,,,,,,,,,,,,,,,71414-4,1,19,dofa,dofa,train,novel,familiar,L,dofa,Y,MEexperimental,7/14/14,12:06,3581,,,,,,,,,,,,,,,,,,,,,,,,,,,,,,,,,,,,,,,,,,,,,,,,,,,,,,,,,,,,,,,,,,,,,71414-4,1,20,fep,car,fep,familiar,novel,R,fep,Y,MEexperimental,7/14/14,12:06,2289,,,,,,,,,,,,,,,,,,,,,,,,,,,,,,,,,,,,,,,,,,,,,,,,,,,,,,,,,,,,,,,,,,,,,71414-4,1,21,carrot,carrot,lamp,familiar,familiar,L,carrot,Y,rec,7/14/14,12:06,1142,,,,,,,,,,,,,,,,,,,,,,,,,,,,,,,,,,,,,,,,,,,,,,,,,,,,,,,,,,,,,,,,,,,,,71414-4,1,22,shovel,shovel,modi,familiar,novel,L,shovel,Y,MEcontrol,7/14/14,12:06,2227,,,,,,,,,,,,,,,,,,,,,,,,,,,,,,,,,,,,,,,,,,,,,,,,,,,,,,,,,,,,,,,,,,,,,71414-4,1,24,fill4,na,na,na,na,na,na,na,filler,7/14/14,12:06,na,,,,,,,,,,,,,,,,,,,,,,,,,,,,,,,,,,,,,,,,,,,,,,,,,,,,,,,,,,,,,,,,,,,,,71414-4,1,23,hammer,sheep,hammer,familiar,familiar,R,hammer,Y,rec,7/14/14,12:06,1265,,,,,,,,,,,,,,,,,,,,,,,,,,,,,,,,,,,,,,,,,,,,,,,,,,,,,,,,,,,,,,,,,,,,,71414-4,1,25,wug,apple,wug,familiar,novel,R,wug,Y,MEexperimental,7/14/14,12:06,2827,,,,,,,,,,,,,,,,,,,,,,,,,,,,,,,,,,,,,,,,,,,,,,,,,,,,,,,,,,,,,,,,,,,,,71414-4,1,26,shoe,shoe,kreeb,familiar,novel,L,shoe,Y,MEcontrol,7/14/14,12:06,1382,,,,,,,,,,,,,,,,,,,,,,,,,,,,,,,,,,,,,,,,,,,,,,,,,,,,,,,,,,,,,,,,,,,,,71414-4,1,27,horse,horse,clock,familiar,familiar,L,horse,Y,rec,7/14/14,12:06,1230,,,,,,,,,,,,,,,,,,,,,,,,,,,,,,,,,,,,,,,,,,,,,,,,,,,,,,,,,,,,,,,,,,,,,71414-4,1,28,bottle,bird,bottle,familiar,familiar,R,bottle,Y,rec,7/14/14,12:06,1940,,,,,,,,,,,,,,,,,,,,,,,,,,,,,,,,,,,,,,,,,,,,,,,,,,,,,,,,,,,,,,,,,,,,,71414-5,1,1,dog,dog,book,familiar,familiar,L,dog,Y,rec,7/14/14,12:20,1662,,,,,,,,,,,,,,,,,,,,,,,,,,,,,,,,,,,,,,,,,,,,,,,,,,,,,,,,,,,,,,,,,,,,,71414-5,1,2,cookie,cookie,baby,familiar,familiar,L,cookie,Y,rec,7/14/14,12:20,1072,,,,,,,,,,,,,,,,,,,,,,,,,,,,,,,,,,,,,,,,,,,,,,,,,,,,,,,,,,,,,,,,,,,,,71414-5,1,3,car,fep,car,novel,familiar,R,car,Y,MEcontrol,7/14/14,12:20,1186,,,,,,,,,,,,,,,,,,,,,,,,,,,,,,,,,,,,,,,,,,,,,,,,,,,,,,,,,,,,,,,,,,,,,71414-5,1,4,dax,dax,cup,novel,familiar,L,dax,Y,MEexperimental,7/14/14,12:20,7919,,,,,,,,,,,,,,,,,,,,,,,,,,,,,,,,,,,,,,,,,,,,,,,,,,,,,,,,,,,,,,,,,,,,,71414-5,1,5,frog,pifo,frog,novel,familiar,R,frog,Y,MEcontrol,7/14/14,12:20,1515,,,,,,,,,,,,,,,,,,,,,,,,,,,,,,,,,,,,,,,,,,,,,,,,,,,,,,,,,,,,,,,,,,,,,71414-5,1,6,fill1,na,na,na,na,na,na,na,filler,7/14/14,12:20,na,,,,,,,,,,,,,,,,,,,,,,,,,,,,,,,,,,,,,,,,,,,,,,,,,,,,,,,,,,,,,,,,,,,,,71414-5,1,7,lion,table,lion,familiar,familiar,R,lion,Y,rec,7/14/14,12:20,1387,,,,,,,,,,,,,,,,,,,,,,,,,,,,,,,,,,,,,,,,,,,,,,,,,,,,,,,,,,,,,,,,,,,,,71414-5,1,8,modi,modi,shovel,novel,familiar,L,modi,Y,MEexperimental,7/14/14,12:20,4707,,,,,,,,,,,,,,,,,,,,,,,,,,,,,,,,,,,,,,,,,,,,,,,,,,,,,,,,,,,,,,,,,,,,,71414-5,1,9,apple,wug,apple,novel,familiar,R,apple,Y,MEcontrol,7/14/14,12:20,1282,,,,,,,,,,,,,,,,,,,,,,,,,,,,,,,,,,,,,,,,,,,,,,,,,,,,,,,,,,,,,,,,,,,,,71414-5,1,10,train,train,dofa,familiar,novel,L,train,Y,MEcontrol,7/14/14,12:20,1410,,,,,,,,,,,,,,,,,,,,,,,,,,,,,,,,,,,,,,,,,,,,,,,,,,,,,,,,,,,,,,,,,,,,,71414-5,1,11,toma,monkey,toma,familiar,novel,R,toma,Y,MEexperimental,7/14/14,12:20,3534,,,,,,,,,,,,,,,,,,,,,,,,,,,,,,,,,,,,,,,,,,,,,,,,,,,,,,,,,,,,,,,,,,,,,71414-5,1,12,fill2,na,na,na,na,na,na,na,filler,7/14/14,12:20,na,,,,,,,,,,,,,,,,,,,,,,,,,,,,,,,,,,,,,,,,,,,,,,,,,,,,,,,,,,,,,,,,,,,,,71414-5,1,13,pifo,frog,pifo,familiar,novel,R,pifo,Y,MEexperimental,7/14/14,12:20,4836,,,,,,,,,,,,,,,,,,,,,,,,,,,,,,,,,,,,,,,,,,,,,,,,,,,,,,,,,,,,,,,,,,,,,71414-5,1,14,cup,cup,dax,familiar,novel,L,cup,Y,MEcontrol,7/14/14,12:20,883,,,,,,,,,,,,,,,,,,,,,,,,,,,,,,,,,,,,,,,,,,,,,,,,,,,,,,,,,,,,,,,,,,,,,71414-5,1,15,kreeb,kreeb,shoe,novel,familiar,L,kreeb,Y,MEexperimental,7/14/14,12:20,1862,,,,,,,,,,,,,,,,,,,,,,,,,,,,,,,,,,,,,,,,,,,,,,,,,,,,,,,,,,,,,,,,,,,,,71414-5,1,16,cat,ball,cat,familiar,familiar,R,cat,Y,rec,7/14/14,12:20,1855,,,,,,,,,,,,,,,,,,,,,,,,,,,,,,,,,,,,,,,,,,,,,,,,,,,,,,,,,,,,,,,,,,,,,71414-5,1,17,monkey,toma,monkey,novel,familiar,R,monkey,Y,MEcontrol,7/14/14,12:20,1373,,,,,,,,,,,,,,,,,,,,,,,,,,,,,,,,,,,,,,,,,,,,,,,,,,,,,,,,,,,,,,,,,,,,,71414-5,1,18,fill3,na,na,na,na,na,na,na,filler,7/14/14,12:20,na,,,,,,,,,,,,,,,,,,,,,,,,,,,,,,,,,,,,,,,,,,,,,,,,,,,,,,,,,,,,,,,,,,,,,71414-5,1,19,dofa,dofa,train,novel,familiar,L,dofa,Y,MEexperimental,7/14/14,12:20,1941,,,,,,,,,,,,,,,,,,,,,,,,,,,,,,,,,,,,,,,,,,,,,,,,,,,,,,,,,,,,,,,,,,,,,71414-5,1,20,fep,car,fep,familiar,novel,R,fep,Y,MEexperimental,7/14/14,12:20,2340,,,,,,,,,,,,,,,,,,,,,,,,,,,,,,,,,,,,,,,,,,,,,,,,,,,,,,,,,,,,,,,,,,,,,71414-5,1,21,carrot,carrot,lamp,familiar,familiar,L,carrot,Y,rec,7/14/14,12:20,1407,,,,,,,,,,,,,,,,,,,,,,,,,,,,,,,,,,,,,,,,,,,,,,,,,,,,,,,,,,,,,,,,,,,,,71414-5,1,22,shovel,shovel,modi,familiar,novel,L,shovel,Y,MEcontrol,7/14/14,12:20,1703,,,,,,,,,,,,,,,,,,,,,,,,,,,,,,,,,,,,,,,,,,,,,,,,,,,,,,,,,,,,,,,,,,,,,71414-5,1,24,fill4,na,na,na,na,na,na,na,filler,7/14/14,12:20,na,,,,,,,,,,,,,,,,,,,,,,,,,,,,,,,,,,,,,,,,,,,,,,,,,,,,,,,,,,,,,,,,,,,,,71414-5,1,23,hammer,sheep,hammer,familiar,familiar,R,hammer,Y,rec,7/14/14,12:20,1513,,,,,,,,,,,,,,,,,,,,,,,,,,,,,,,,,,,,,,,,,,,,,,,,,,,,,,,,,,,,,,,,,,,,,71414-5,1,25,wug,apple,wug,familiar,novel,R,wug,Y,MEexperimental,7/14/14,12:20,2102,,,,,,,,,,,,,,,,,,,,,,,,,,,,,,,,,,,,,,,,,,,,,,,,,,,,,,,,,,,,,,,,,,,,,71414-5,1,26,shoe,shoe,kreeb,familiar,novel,L,shoe,Y,MEcontrol,7/14/14,12:20,1811,,,,,,,,,,,,,,,,,,,,,,,,,,,,,,,,,,,,,,,,,,,,,,,,,,,,,,,,,,,,,,,,,,,,,71414-5,1,27,horse,horse,clock,familiar,familiar,L,horse,Y,rec,7/14/14,12:20,853,,,,,,,,,,,,,,,,,,,,,,,,,,,,,,,,,,,,,,,,,,,,,,,,,,,,,,,,,,,,,,,,,,,,,71414-5,1,28,bottle,bird,bottle,familiar,familiar,R,bottle,Y,rec,7/14/14,12:20,1487,,,,,,,,,,,,,,,,,,,,,,,,,,,,,,,,,,,,,,,,,,,,,,,,,,,,,,,,,,,,,,,,,,,,,71414-6,1,1,dog,dog,book,familiar,familiar,L,dog,Y,rec,7/14/14,12:43,2575,,,,,,,,,,,,,,,,,,,,,,,,,,,,,,,,,,,,,,,,,,,,,,,,,,,,,,,,,,,,,,,,,,,,,71414-6,1,2,cookie,cookie,baby,familiar,familiar,L,cookie,Y,rec,7/14/14,12:43,1453,,,,,,,,,,,,,,,,,,,,,,,,,,,,,,,,,,,,,,,,,,,,,,,,,,,,,,,,,,,,,,,,,,,,,71414-6,1,3,car,fep,car,novel,familiar,R,car,Y,MEcontrol,7/14/14,12:43,1438,,,,,,,,,,,,,,,,,,,,,,,,,,,,,,,,,,,,,,,,,,,,,,,,,,,,,,,,,,,,,,,,,,,,,71414-6,1,4,dax,dax,cup,novel,familiar,R,cup,N,MEexperimental,7/14/14,12:43,10152,,,,,,,,,,,,,,,,,,,,,,,,,,,,,,,,,,,,,,,,,,,,,,,,,,,,,,,,,,,,,,,,,,,,,71414-6,1,5,frog,pifo,frog,novel,familiar,R,frog,Y,MEcontrol,7/14/14,12:43,1236,,,,,,,,,,,,,,,,,,,,,,,,,,,,,,,,,,,,,,,,,,,,,,,,,,,,,,,,,,,,,,,,,,,,,71414-6,1,6,fill1,na,na,na,na,na,na,na,filler,7/14/14,12:43,na,,,,,,,,,,,,,,,,,,,,,,,,,,,,,,,,,,,,,,,,,,,,,,,,,,,,,,,,,,,,,,,,,,,,,71414-6,1,7,lion,table,lion,familiar,familiar,R,lion,Y,rec,7/14/14,12:43,4672,,,,,,,,,,,,,,,,,,,,,,,,,,,,,,,,,,,,,,,,,,,,,,,,,,,,,,,,,,,,,,,,,,,,,71414-6,1,8,modi,modi,shovel,novel,familiar,L,modi,Y,MEexperimental,7/14/14,12:43,2605,,,,,,,,,,,,,,,,,,,,,,,,,,,,,,,,,,,,,,,,,,,,,,,,,,,,,,,,,,,,,,,,,,,,,71414-6,1,9,apple,wug,apple,novel,familiar,R,apple,Y,MEcontrol,7/14/14,12:43,1174,,,,,,,,,,,,,,,,,,,,,,,,,,,,,,,,,,,,,,,,,,,,,,,,,,,,,,,,,,,,,,,,,,,,,71414-6,1,10,train,train,dofa,familiar,novel,L,train,Y,MEcontrol,7/14/14,12:43,1329,,,,,,,,,,,,,,,,,,,,,,,,,,,,,,,,,,,,,,,,,,,,,,,,,,,,,,,,,,,,,,,,,,,,,71414-6,1,11,toma,monkey,toma,familiar,novel,R,toma,Y,MEexperimental,7/14/14,12:43,3234,,,,,,,,,,,,,,,,,,,,,,,,,,,,,,,,,,,,,,,,,,,,,,,,,,,,,,,,,,,,,,,,,,,,,71414-6,1,12,fill2,na,na,na,na,na,na,na,filler,7/14/14,12:43,na,,,,,,,,,,,,,,,,,,,,,,,,,,,,,,,,,,,,,,,,,,,,,,,,,,,,,,,,,,,,,,,,,,,,,71414-6,1,13,pifo,frog,pifo,familiar,novel,R,pifo,Y,MEexperimental,7/14/14,12:43,2828,,,,,,,,,,,,,,,,,,,,,,,,,,,,,,,,,,,,,,,,,,,,,,,,,,,,,,,,,,,,,,,,,,,,,71414-6,1,14,cup,cup,dax,familiar,novel,L,cup,Y,MEcontrol,7/14/14,12:43,1720,,,,,,,,,,,,,,,,,,,,,,,,,,,,,,,,,,,,,,,,,,,,,,,,,,,,,,,,,,,,,,,,,,,,,71414-6,1,15,kreeb,kreeb,shoe,novel,familiar,R,shoe,N,MEexperimental,7/14/14,12:43,398,,,,,,,,,,,,,,,,,,,,,,,,,,,,,,,,,,,,,,,,,,,,,,,,,,,,,,,,,,,,,,,,,,,,,71414-6,1,16,cat,ball,cat,familiar,familiar,R,cat,Y,rec,7/14/14,12:43,2071,,,,,,,,,,,,,,,,,,,,,,,,,,,,,,,,,,,,,,,,,,,,,,,,,,,,,,,,,,,,,,,,,,,,,71414-6,1,17,monkey,toma,monkey,novel,familiar,R,monkey,Y,MEcontrol,7/14/14,12:43,3825,,,,,,,,,,,,,,,,,,,,,,,,,,,,,,,,,,,,,,,,,,,,,,,,,,,,,,,,,,,,,,,,,,,,,71414-6,1,18,fill3,na,na,na,na,na,na,na,filler,7/14/14,12:43,na,,,,,,,,,,,,,,,,,,,,,,,,,,,,,,,,,,,,,,,,,,,,,,,,,,,,,,,,,,,,,,,,,,,,,71414-6,1,19,dofa,dofa,train,novel,familiar,L,dofa,Y,MEexperimental,7/14/14,12:43,30030,,,,,,,,,,,,,,,,,,,,,,,,,,,,,,,,,,,,,,,,,,,,,,,,,,,,,,,,,,,,,,,,,,,,,71414-6,1,20,fep,car,fep,familiar,novel,R,fep,Y,MEexperimental,7/14/14,12:43,3980,,,,,,,,,,,,,,,,,,,,,,,,,,,,,,,,,,,,,,,,,,,,,,,,,,,,,,,,,,,,,,,,,,,,,71414-6,1,21,carrot,carrot,lamp,familiar,familiar,L,carrot,Y,rec,7/14/14,12:43,1367,,,,,,,,,,,,,,,,,,,,,,,,,,,,,,,,,,,,,,,,,,,,,,,,,,,,,,,,,,,,,,,,,,,,,71414-6,1,22,shovel,shovel,modi,familiar,novel,L,shovel,Y,MEcontrol,7/14/14,12:43,1918,,,,,,,,,,,,,,,,,,,,,,,,,,,,,,,,,,,,,,,,,,,,,,,,,,,,,,,,,,,,,,,,,,,,,71414-6,1,23,hammer,sheep,hammer,familiar,familiar,L,sheep,N,rec,7/14/14,12:43,2580,,,,,,,,,,,,,,,,,,,,,,,,,,,,,,,,,,,,,,,,,,,,,,,,,,,,,,,,,,,,,,,,,,,,,71414-6,1,24,fill4,na,na,na,na,na,na,na,filler,7/14/14,12:43,na,,,,,,,,,,,,,,,,,,,,,,,,,,,,,,,,,,,,,,,,,,,,,,,,,,,,,,,,,,,,,,,,,,,,,71414-6,1,25,wug,apple,wug,familiar,novel,R,wug,Y,MEexperimental,7/14/14,12:43,3561,,,,,,,,,,,,,,,,,,,,,,,,,,,,,,,,,,,,,,,,,,,,,,,,,,,,,,,,,,,,,,,,,,,,,71414-6,1,26,shoe,shoe,kreeb,familiar,novel,L,shoe,Y,MEcontrol,7/14/14,12:43,1464,,,,,,,,,,,,,,,,,,,,,,,,,,,,,,,,,,,,,,,,,,,,,,,,,,,,,,,,,,,,,,,,,,,,,71414-6,1,27,horse,horse,clock,familiar,familiar,R,clock,N,rec,7/14/14,12:43,9350,,,,,,,,,,,,,,,,,,,,,,,,,,,,,,,,,,,,,,,,,,,,,,,,,,,,,,,,,,,,,,,,,,,,,71414-6,1,28,bottle,bird,bottle,familiar,familiar,R,bottle,Y,rec,7/14/14,12:43,15170,,,,,,,,,,,,,,,,,,,,,,,,,,,,,,,,,,,,,,,,,,,,,,,,,,,,,,,,,,,,,,,,,,,,,71414-7,1,1,dog,dog,book,familiar,familiar,L,dog,Y,rec,7/14/14,12:54,4509,,,,,,,,,,,,,,,,,,,,,,,,,,,,,,,,,,,,,,,,,,,,,,,,,,,,,,,,,,,,,,,,,,,,,71414-7,1,2,cookie,cookie,baby,familiar,familiar,L,cookie,Y,rec,7/14/14,12:54,1460,,,,,,,,,,,,,,,,,,,,,,,,,,,,,,,,,,,,,,,,,,,,,,,,,,,,,,,,,,,,,,,,,,,,,71414-7,1,3,car,fep,car,novel,familiar,R,car,Y,MEcontrol,7/14/14,12:54,1161,,,,,,,,,,,,,,,,,,,,,,,,,,,,,,,,,,,,,,,,,,,,,,,,,,,,,,,,,,,,,,,,,,,,,71414-7,1,4,dax,dax,cup,novel,familiar,L,dax,Y,MEexperimental,7/14/14,12:54,1681,,,,,,,,,,,,,,,,,,,,,,,,,,,,,,,,,,,,,,,,,,,,,,,,,,,,,,,,,,,,,,,,,,,,,71414-7,1,5,frog,pifo,frog,novel,familiar,R,frog,Y,MEcontrol,7/14/14,12:54,1059,,,,,,,,,,,,,,,,,,,,,,,,,,,,,,,,,,,,,,,,,,,,,,,,,,,,,,,,,,,,,,,,,,,,,71414-7,1,6,fill1,na,na,na,na,na,na,na,filler,7/14/14,12:54,na,,,,,,,,,,,,,,,,,,,,,,,,,,,,,,,,,,,,,,,,,,,,,,,,,,,,,,,,,,,,,,,,,,,,,71414-7,1,7,lion,table,lion,familiar,familiar,R,lion,Y,rec,7/14/14,12:54,1630,,,,,,,,,,,,,,,,,,,,,,,,,,,,,,,,,,,,,,,,,,,,,,,,,,,,,,,,,,,,,,,,,,,,,71414-7,1,8,modi,modi,shovel,novel,familiar,L,modi,Y,MEexperimental,7/14/14,12:54,1633,,,,,,,,,,,,,,,,,,,,,,,,,,,,,,,,,,,,,,,,,,,,,,,,,,,,,,,,,,,,,,,,,,,,,71414-7,1,9,apple,wug,apple,novel,familiar,R,apple,Y,MEcontrol,7/14/14,12:54,1301,,,,,,,,,,,,,,,,,,,,,,,,,,,,,,,,,,,,,,,,,,,,,,,,,,,,,,,,,,,,,,,,,,,,,71414-7,1,10,train,train,dofa,familiar,novel,L,train,Y,MEcontrol,7/14/14,12:54,1265,,,,,,,,,,,,,,,,,,,,,,,,,,,,,,,,,,,,,,,,,,,,,,,,,,,,,,,,,,,,,,,,,,,,,71414-7,1,11,toma,monkey,toma,familiar,novel,R,toma,Y,MEexperimental,7/14/14,12:54,2785,,,,,,,,,,,,,,,,,,,,,,,,,,,,,,,,,,,,,,,,,,,,,,,,,,,,,,,,,,,,,,,,,,,,,71414-7,1,12,fill2,na,na,na,na,na,na,na,filler,7/14/14,12:54,na,,,,,,,,,,,,,,,,,,,,,,,,,,,,,,,,,,,,,,,,,,,,,,,,,,,,,,,,,,,,,,,,,,,,,71414-7,1,13,pifo,frog,pifo,familiar,novel,R,pifo,Y,MEexperimental,7/14/14,12:54,1337,,,,,,,,,,,,,,,,,,,,,,,,,,,,,,,,,,,,,,,,,,,,,,,,,,,,,,,,,,,,,,,,,,,,,71414-7,1,14,cup,cup,dax,familiar,novel,L,cup,Y,MEcontrol,7/14/14,12:54,1468,,,,,,,,,,,,,,,,,,,,,,,,,,,,,,,,,,,,,,,,,,,,,,,,,,,,,,,,,,,,,,,,,,,,,71414-7,1,15,kreeb,kreeb,shoe,novel,familiar,L,kreeb,Y,MEexperimental,7/14/14,12:54,1837,,,,,,,,,,,,,,,,,,,,,,,,,,,,,,,,,,,,,,,,,,,,,,,,,,,,,,,,,,,,,,,,,,,,,71414-7,1,16,cat,ball,cat,familiar,familiar,R,cat,Y,rec,7/14/14,12:54,1136,,,,,,,,,,,,,,,,,,,,,,,,,,,,,,,,,,,,,,,,,,,,,,,,,,,,,,,,,,,,,,,,,,,,,71414-7,1,17,monkey,toma,monkey,novel,familiar,R,monkey,Y,MEcontrol,7/14/14,12:54,1192,,,,,,,,,,,,,,,,,,,,,,,,,,,,,,,,,,,,,,,,,,,,,,,,,,,,,,,,,,,,,,,,,,,,,71414-7,1,18,fill3,na,na,na,na,na,na,na,filler,7/14/14,12:54,na,,,,,,,,,,,,,,,,,,,,,,,,,,,,,,,,,,,,,,,,,,,,,,,,,,,,,,,,,,,,,,,,,,,,,71414-7,1,19,dofa,dofa,train,novel,familiar,L,dofa,Y,MEexperimental,7/14/14,12:54,2487,,,,,,,,,,,,,,,,,,,,,,,,,,,,,,,,,,,,,,,,,,,,,,,,,,,,,,,,,,,,,,,,,,,,,71414-7,1,20,fep,car,fep,familiar,novel,R,fep,Y,MEexperimental,7/14/14,12:54,3919,,,,,,,,,,,,,,,,,,,,,,,,,,,,,,,,,,,,,,,,,,,,,,,,,,,,,,,,,,,,,,,,,,,,,71414-7,1,21,carrot,carrot,lamp,familiar,familiar,L,carrot,Y,rec,7/14/14,12:54,1614,,,,,,,,,,,,,,,,,,,,,,,,,,,,,,,,,,,,,,,,,,,,,,,,,,,,,,,,,,,,,,,,,,,,,71414-7,1,22,shovel,shovel,modi,familiar,novel,L,shovel,Y,MEcontrol,7/14/14,12:54,1540,,,,,,,,,,,,,,,,,,,,,,,,,,,,,,,,,,,,,,,,,,,,,,,,,,,,,,,,,,,,,,,,,,,,,71414-7,1,23,hammer,sheep,hammer,familiar,familiar,R,hammer,Y,rec,7/14/14,12:54,6609,,,,,,,,,,,,,,,,,,,,,,,,,,,,,,,,,,,,,,,,,,,,,,,,,,,,,,,,,,,,,,,,,,,,,71414-7,1,24,fill4,na,na,na,na,na,na,na,filler,7/14/14,12:54,na,,,,,,,,,,,,,,,,,,,,,,,,,,,,,,,,,,,,,,,,,,,,,,,,,,,,,,,,,,,,,,,,,,,,,71414-7,1,25,wug,apple,wug,familiar,novel,R,wug,Y,MEexperimental,7/14/14,12:54,1509,,,,,,,,,,,,,,,,,,,,,,,,,,,,,,,,,,,,,,,,,,,,,,,,,,,,,,,,,,,,,,,,,,,,,71414-7,1,26,shoe,shoe,kreeb,familiar,novel,L,shoe,Y,MEcontrol,7/14/14,12:54,1559,,,,,,,,,,,,,,,,,,,,,,,,,,,,,,,,,,,,,,,,,,,,,,,,,,,,,,,,,,,,,,,,,,,,,71414-7,1,27,horse,horse,clock,familiar,familiar,L,horse,Y,rec,7/14/14,12:54,1163,,,,,,,,,,,,,,,,,,,,,,,,,,,,,,,,,,,,,,,,,,,,,,,,,,,,,,,,,,,,,,,,,,,,,71414-7,1,28,bottle,bird,bottle,familiar,familiar,R,bottle,Y,rec,7/14/14,12:54,1437,,,,,,,,,,,,,,,,,,,,,,,,,,,,,,,,,,,,,,,,,,,,,,,,,,,,,,,,,,,,,,,,,,,,,71414-8,1,1,dog,dog,book,familiar,familiar,L,dog,Y,rec,7/14/14,13:20,1864,,,,,,,,,,,,,,,,,,,,,,,,,,,,,,,,,,,,,,,,,,,,,,,,,,,,,,,,,,,,,,,,,,,,,71414-8,1,2,cookie,cookie,baby,familiar,familiar,L,cookie,Y,rec,7/14/14,13:20,1092,,,,,,,,,,,,,,,,,,,,,,,,,,,,,,,,,,,,,,,,,,,,,,,,,,,,,,,,,,,,,,,,,,,,,71414-8,1,3,car,fep,car,novel,familiar,R,car,Y,MEcontrol,7/14/14,13:20,1156,,,,,,,,,,,,,,,,,,,,,,,,,,,,,,,,,,,,,,,,,,,,,,,,,,,,,,,,,,,,,,,,,,,,,71414-8,1,4,dax,dax,cup,novel,familiar,L,dax,Y,MEexperimental,7/14/14,13:20,14427,,,,,,,,,,,,,,,,,,,,,,,,,,,,,,,,,,,,,,,,,,,,,,,,,,,,,,,,,,,,,,,,,,,,,71414-8,1,5,frog,pifo,frog,novel,familiar,R,frog,Y,MEcontrol,7/14/14,13:20,1433,,,,,,,,,,,,,,,,,,,,,,,,,,,,,,,,,,,,,,,,,,,,,,,,,,,,,,,,,,,,,,,,,,,,,71414-8,1,6,fill1,na,na,na,na,na,na,na,filler,7/14/14,13:20,na,,,,,,,,,,,,,,,,,,,,,,,,,,,,,,,,,,,,,,,,,,,,,,,,,,,,,,,,,,,,,,,,,,,,,71414-8,1,7,lion,table,lion,familiar,familiar,R,lion,Y,rec,7/14/14,13:20,1164,,,,,,,,,,,,,,,,,,,,,,,,,,,,,,,,,,,,,,,,,,,,,,,,,,,,,,,,,,,,,,,,,,,,,71414-8,1,8,modi,modi,shovel,novel,familiar,L,modi,Y,MEexperimental,7/14/14,13:20,1519,,,,,,,,,,,,,,,,,,,,,,,,,,,,,,,,,,,,,,,,,,,,,,,,,,,,,,,,,,,,,,,,,,,,,71414-8,1,9,apple,wug,apple,novel,familiar,R,apple,Y,MEcontrol,7/14/14,13:20,1227,,,,,,,,,,,,,,,,,,,,,,,,,,,,,,,,,,,,,,,,,,,,,,,,,,,,,,,,,,,,,,,,,,,,,71414-8,1,10,train,train,dofa,familiar,novel,L,train,Y,MEcontrol,7/14/14,13:20,1356,,,,,,,,,,,,,,,,,,,,,,,,,,,,,,,,,,,,,,,,,,,,,,,,,,,,,,,,,,,,,,,,,,,,,71414-8,1,11,toma,monkey,toma,familiar,novel,R,toma,Y,MEexperimental,7/14/14,13:20,1464,,,,,,,,,,,,,,,,,,,,,,,,,,,,,,,,,,,,,,,,,,,,,,,,,,,,,,,,,,,,,,,,,,,,,71414-8,1,12,fill2,na,na,na,na,na,na,na,filler,7/14/14,13:20,na,,,,,,,,,,,,,,,,,,,,,,,,,,,,,,,,,,,,,,,,,,,,,,,,,,,,,,,,,,,,,,,,,,,,,71414-8,1,13,pifo,frog,pifo,familiar,novel,R,pifo,Y,MEexperimental,7/14/14,13:20,1427,,,,,,,,,,,,,,,,,,,,,,,,,,,,,,,,,,,,,,,,,,,,,,,,,,,,,,,,,,,,,,,,,,,,,71414-8,1,14,cup,cup,dax,familiar,novel,L,cup,Y,MEcontrol,7/14/14,13:20,900,,,,,,,,,,,,,,,,,,,,,,,,,,,,,,,,,,,,,,,,,,,,,,,,,,,,,,,,,,,,,,,,,,,,,71414-8,1,15,kreeb,kreeb,shoe,novel,familiar,L,kreeb,Y,MEexperimental,7/14/14,13:20,1002,,,,,,,,,,,,,,,,,,,,,,,,,,,,,,,,,,,,,,,,,,,,,,,,,,,,,,,,,,,,,,,,,,,,,71414-8,1,16,cat,ball,cat,familiar,familiar,R,cat,Y,rec,7/14/14,13:20,979,,,,,,,,,,,,,,,,,,,,,,,,,,,,,,,,,,,,,,,,,,,,,,,,,,,,,,,,,,,,,,,,,,,,,71414-8,1,17,monkey,toma,monkey,novel,familiar,R,monkey,Y,MEcontrol,7/14/14,13:20,1735,,,,,,,,,,,,,,,,,,,,,,,,,,,,,,,,,,,,,,,,,,,,,,,,,,,,,,,,,,,,,,,,,,,,,71414-8,1,18,fill3,na,na,na,na,na,na,na,filler,7/14/14,13:20,na,,,,,,,,,,,,,,,,,,,,,,,,,,,,,,,,,,,,,,,,,,,,,,,,,,,,,,,,,,,,,,,,,,,,,71414-8,1,19,dofa,dofa,train,novel,familiar,L,dofa,Y,MEexperimental,7/14/14,13:20,1956,,,,,,,,,,,,,,,,,,,,,,,,,,,,,,,,,,,,,,,,,,,,,,,,,,,,,,,,,,,,,,,,,,,,,71414-8,1,20,fep,car,fep,familiar,novel,R,fep,Y,MEexperimental,7/14/14,13:20,1334,,,,,,,,,,,,,,,,,,,,,,,,,,,,,,,,,,,,,,,,,,,,,,,,,,,,,,,,,,,,,,,,,,,,,71414-8,1,21,carrot,carrot,lamp,familiar,familiar,L,carrot,Y,rec,7/14/14,13:20,1349,,,,,,,,,,,,,,,,,,,,,,,,,,,,,,,,,,,,,,,,,,,,,,,,,,,,,,,,,,,,,,,,,,,,,71414-8,1,22,shovel,shovel,modi,familiar,novel,L,shovel,Y,MEcontrol,7/14/14,13:20,906,,,,,,,,,,,,,,,,,,,,,,,,,,,,,,,,,,,,,,,,,,,,,,,,,,,,,,,,,,,,,,,,,,,,,71414-8,1,23,hammer,sheep,hammer,familiar,familiar,R,hammer,Y,rec,7/14/14,13:20,1172,,,,,,,,,,,,,,,,,,,,,,,,,,,,,,,,,,,,,,,,,,,,,,,,,,,,,,,,,,,,,,,,,,,,,71414-8,1,24,fill4,na,na,na,na,na,na,na,filler,7/14/14,13:20,na,,,,,,,,,,,,,,,,,,,,,,,,,,,,,,,,,,,,,,,,,,,,,,,,,,,,,,,,,,,,,,,,,,,,,71414-8,1,25,wug,apple,wug,familiar,novel,R,wug,Y,MEexperimental,7/14/14,13:20,2348,,,,,,,,,,,,,,,,,,,,,,,,,,,,,,,,,,,,,,,,,,,,,,,,,,,,,,,,,,,,,,,,,,,,,71414-8,1,26,shoe,shoe,kreeb,familiar,novel,L,shoe,Y,MEcontrol,7/14/14,13:20,1105,,,,,,,,,,,,,,,,,,,,,,,,,,,,,,,,,,,,,,,,,,,,,,,,,,,,,,,,,,,,,,,,,,,,,71414-8,1,27,horse,horse,clock,familiar,familiar,L,horse,Y,rec,7/14/14,13:20,980,,,,,,,,,,,,,,,,,,,,,,,,,,,,,,,,,,,,,,,,,,,,,,,,,,,,,,,,,,,,,,,,,,,,,71414-8,1,28,bottle,bird,bottle,familiar,familiar,R,bottle,Y,rec,7/14/14,13:20,1052,,,,,,,,,,,,,,,,,,,,,,,,,,,,,,,,,,,,,,,,,,,,,,,,,,,,,,,,,,,,,,,,,,,,,71414-9,1,1,dog,dog,book,familiar,familiar,L,dog,Y,rec,7/14/14,14:19,4651,,,,,,,,,,,,,,,,,,,,,,,,,,,,,,,,,,,,,,,,,,,,,,,,,,,,,,,,,,,,,,,,,,,,,71414-9,1,2,cookie,cookie,baby,familiar,familiar,L,cookie,Y,rec,7/14/14,14:19,1683,,,,,,,,,,,,,,,,,,,,,,,,,,,,,,,,,,,,,,,,,,,,,,,,,,,,,,,,,,,,,,,,,,,,,71414-9,1,3,car,fep,car,novel,familiar,R,car,Y,MEcontrol,7/14/14,14:19,1301,,,,,,,,,,,,,,,,,,,,,,,,,,,,,,,,,,,,,,,,,,,,,,,,,,,,,,,,,,,,,,,,,,,,,71414-9,1,4,dax,dax,cup,novel,familiar,L,dax,Y,MEexperimental,7/14/14,14:19,2359,,,,,,,,,,,,,,,,,,,,,,,,,,,,,,,,,,,,,,,,,,,,,,,,,,,,,,,,,,,,,,,,,,,,,71414-9,1,5,frog,pifo,frog,novel,familiar,R,frog,Y,MEcontrol,7/14/14,14:19,1258,,,,,,,,,,,,,,,,,,,,,,,,,,,,,,,,,,,,,,,,,,,,,,,,,,,,,,,,,,,,,,,,,,,,,71414-9,1,6,fill1,na,na,na,na,na,na,na,filler,7/14/14,14:19,na,,,,,,,,,,,,,,,,,,,,,,,,,,,,,,,,,,,,,,,,,,,,,,,,,,,,,,,,,,,,,,,,,,,,,71414-9,1,7,lion,table,lion,familiar,familiar,R,lion,Y,rec,7/14/14,14:19,1686,,,,,,,,,,,,,,,,,,,,,,,,,,,,,,,,,,,,,,,,,,,,,,,,,,,,,,,,,,,,,,,,,,,,,71414-9,1,8,modi,modi,shovel,novel,familiar,R,shovel,N,MEexperimental,7/14/14,14:19,2182,,,,,,,,,,,,,,,,,,,,,,,,,,,,,,,,,,,,,,,,,,,,,,,,,,,,,,,,,,,,,,,,,,,,,71414-9,1,9,apple,wug,apple,novel,familiar,R,apple,Y,MEcontrol,7/14/14,14:19,1220,,,,,,,,,,,,,,,,,,,,,,,,,,,,,,,,,,,,,,,,,,,,,,,,,,,,,,,,,,,,,,,,,,,,,71414-9,1,10,train,train,dofa,familiar,novel,L,train,Y,MEcontrol,7/14/14,14:19,2760,,,,,,,,,,,,,,,,,,,,,,,,,,,,,,,,,,,,,,,,,,,,,,,,,,,,,,,,,,,,,,,,,,,,,71414-9,1,11,toma,monkey,toma,familiar,novel,L,monkey,N,MEexperimental,7/14/14,14:19,6267,,,,,,,,,,,,,,,,,,,,,,,,,,,,,,,,,,,,,,,,,,,,,,,,,,,,,,,,,,,,,,,,,,,,,71414-9,1,12,fill2,na,na,na,na,na,na,na,filler,7/14/14,14:19,na,,,,,,,,,,,,,,,,,,,,,,,,,,,,,,,,,,,,,,,,,,,,,,,,,,,,,,,,,,,,,,,,,,,,,71414-9,1,13,pifo,frog,pifo,familiar,novel,R,pifo,Y,MEexperimental,7/14/14,14:19,2103,,,,,,,,,,,,,,,,,,,,,,,,,,,,,,,,,,,,,,,,,,,,,,,,,,,,,,,,,,,,,,,,,,,,,71414-9,1,14,cup,cup,dax,familiar,novel,L,cup,Y,MEcontrol,7/14/14,14:19,2236,,,,,,,,,,,,,,,,,,,,,,,,,,,,,,,,,,,,,,,,,,,,,,,,,,,,,,,,,,,,,,,,,,,,,71414-9,1,15,kreeb,kreeb,shoe,novel,familiar,L,kreeb,Y,MEexperimental,7/14/14,14:19,2941,,,,,,,,,,,,,,,,,,,,,,,,,,,,,,,,,,,,,,,,,,,,,,,,,,,,,,,,,,,,,,,,,,,,,71414-9,1,16,cat,ball,cat,familiar,familiar,R,cat,Y,rec,7/14/14,14:19,1659,,,,,,,,,,,,,,,,,,,,,,,,,,,,,,,,,,,,,,,,,,,,,,,,,,,,,,,,,,,,,,,,,,,,,71414-9,1,17,monkey,toma,monkey,novel,familiar,R,monkey,Y,MEcontrol,7/14/14,14:19,1854,,,,,,,,,,,,,,,,,,,,,,,,,,,,,,,,,,,,,,,,,,,,,,,,,,,,,,,,,,,,,,,,,,,,,71414-9,1,18,fill3,na,na,na,na,na,na,na,filler,7/14/14,14:19,na,,,,,,,,,,,,,,,,,,,,,,,,,,,,,,,,,,,,,,,,,,,,,,,,,,,,,,,,,,,,,,,,,,,,,71414-9,1,19,dofa,dofa,train,novel,familiar,L,dofa,Y,MEexperimental,7/14/14,14:19,2555,,,,,,,,,,,,,,,,,,,,,,,,,,,,,,,,,,,,,,,,,,,,,,,,,,,,,,,,,,,,,,,,,,,,,71414-9,1,20,fep,car,fep,familiar,novel,R,fep,Y,MEexperimental,7/14/14,14:19,1708,,,,,,,,,,,,,,,,,,,,,,,,,,,,,,,,,,,,,,,,,,,,,,,,,,,,,,,,,,,,,,,,,,,,,71414-9,1,21,carrot,carrot,lamp,familiar,familiar,L,carrot,Y,rec,7/14/14,14:19,2014,,,,,,,,,,,,,,,,,,,,,,,,,,,,,,,,,,,,,,,,,,,,,,,,,,,,,,,,,,,,,,,,,,,,,71414-9,1,22,shovel,shovel,modi,familiar,novel,L,shovel,Y,MEcontrol,7/14/14,14:19,1721,,,,,,,,,,,,,,,,,,,,,,,,,,,,,,,,,,,,,,,,,,,,,,,,,,,,,,,,,,,,,,,,,,,,,71414-9,1,23,hammer,sheep,hammer,familiar,familiar,R,hammer,Y,rec,7/14/14,14:19,1510,,,,,,,,,,,,,,,,,,,,,,,,,,,,,,,,,,,,,,,,,,,,,,,,,,,,,,,,,,,,,,,,,,,,,71414-9,1,24,fill4,na,na,na,na,na,na,na,filler,7/14/14,14:19,na,,,,,,,,,,,,,,,,,,,,,,,,,,,,,,,,,,,,,,,,,,,,,,,,,,,,,,,,,,,,,,,,,,,,,71414-9,1,25,wug,apple,wug,familiar,novel,R,wug,Y,MEexperimental,7/14/14,14:19,2337,,,,,,,,,,,,,,,,,,,,,,,,,,,,,,,,,,,,,,,,,,,,,,,,,,,,,,,,,,,,,,,,,,,,,71414-9,1,26,shoe,shoe,kreeb,familiar,novel,L,shoe,Y,MEcontrol,7/14/14,14:19,1593,,,,,,,,,,,,,,,,,,,,,,,,,,,,,,,,,,,,,,,,,,,,,,,,,,,,,,,,,,,,,,,,,,,,,71414-9,1,27,horse,horse,clock,familiar,familiar,L,horse,Y,rec,7/14/14,14:19,1975,,,,,,,,,,,,,,,,,,,,,,,,,,,,,,,,,,,,,,,,,,,,,,,,,,,,,,,,,,,,,,,,,,,,,71414-9,1,28,bottle,bird,bottle,familiar,familiar,R,bottle,Y,rec,7/14/14,14:19,1482,,,,,,,,,,,,,,,,,,,,,,,,,,,,,,,,,,,,,,,,,,,,,,,,,,,,,,,,,,,,,,,,,,,,,71514-1,1,1,dog,dog,book,familiar,familiar,L,dog,Y,rec,7/15/14,11:29,2712,,,,,,,,,,,,,,,,,,,,,,,,,,,,,,,,,,,,,,,,,,,,,,,,,,,,,,,,,,,,,,,,,,,,,71514-1,1,2,cookie,cookie,baby,familiar,familiar,L,cookie,Y,rec,7/15/14,11:29,1241,,,,,,,,,,,,,,,,,,,,,,,,,,,,,,,,,,,,,,,,,,,,,,,,,,,,,,,,,,,,,,,,,,,,,71514-1,1,3,car,fep,car,novel,familiar,R,car,Y,MEcontrol,7/15/14,11:29,1227,,,,,,,,,,,,,,,,,,,,,,,,,,,,,,,,,,,,,,,,,,,,,,,,,,,,,,,,,,,,,,,,,,,,,71514-1,1,4,dax,dax,cup,novel,familiar,L,dax,Y,MEexperimental,7/15/14,11:29,2249,,,,,,,,,,,,,,,,,,,,,,,,,,,,,,,,,,,,,,,,,,,,,,,,,,,,,,,,,,,,,,,,,,,,,71514-1,1,5,frog,pifo,frog,novel,familiar,R,frog,Y,MEcontrol,7/15/14,11:29,1352,,,,,,,,,,,,,,,,,,,,,,,,,,,,,,,,,,,,,,,,,,,,,,,,,,,,,,,,,,,,,,,,,,,,,71514-1,1,6,fill1,na,na,na,na,na,na,na,filler,7/15/14,11:29,na,,,,,,,,,,,,,,,,,,,,,,,,,,,,,,,,,,,,,,,,,,,,,,,,,,,,,,,,,,,,,,,,,,,,,71514-1,1,7,lion,table,lion,familiar,familiar,R,lion,Y,rec,7/15/14,11:29,1447,,,,,,,,,,,,,,,,,,,,,,,,,,,,,,,,,,,,,,,,,,,,,,,,,,,,,,,,,,,,,,,,,,,,,71514-1,1,8,modi,modi,shovel,novel,familiar,L,modi,Y,MEexperimental,7/15/14,11:29,2039,,,,,,,,,,,,,,,,,,,,,,,,,,,,,,,,,,,,,,,,,,,,,,,,,,,,,,,,,,,,,,,,,,,,,71514-1,1,9,apple,wug,apple,novel,familiar,R,apple,Y,MEcontrol,7/15/14,11:29,1430,,,,,,,,,,,,,,,,,,,,,,,,,,,,,,,,,,,,,,,,,,,,,,,,,,,,,,,,,,,,,,,,,,,,,71514-1,1,10,train,train,dofa,familiar,novel,L,train,Y,MEcontrol,7/15/14,11:29,2148,,,,,,,,,,,,,,,,,,,,,,,,,,,,,,,,,,,,,,,,,,,,,,,,,,,,,,,,,,,,,,,,,,,,,71514-1,1,11,toma,monkey,toma,familiar,novel,R,toma,Y,MEexperimental,7/15/14,11:29,2843,,,,,,,,,,,,,,,,,,,,,,,,,,,,,,,,,,,,,,,,,,,,,,,,,,,,,,,,,,,,,,,,,,,,,71514-1,1,12,fill2,na,na,na,na,na,na,na,filler,7/15/14,11:29,na,,,,,,,,,,,,,,,,,,,,,,,,,,,,,,,,,,,,,,,,,,,,,,,,,,,,,,,,,,,,,,,,,,,,,71514-1,1,13,pifo,frog,pifo,familiar,novel,R,pifo,Y,MEexperimental,7/15/14,11:29,2333,,,,,,,,,,,,,,,,,,,,,,,,,,,,,,,,,,,,,,,,,,,,,,,,,,,,,,,,,,,,,,,,,,,,,71514-1,1,14,cup,cup,dax,familiar,novel,L,cup,Y,MEcontrol,7/15/14,11:29,1611,,,,,,,,,,,,,,,,,,,,,,,,,,,,,,,,,,,,,,,,,,,,,,,,,,,,,,,,,,,,,,,,,,,,,71514-1,1,15,kreeb,kreeb,shoe,novel,familiar,L,kreeb,Y,MEexperimental,7/15/14,11:29,2409,,,,,,,,,,,,,,,,,,,,,,,,,,,,,,,,,,,,,,,,,,,,,,,,,,,,,,,,,,,,,,,,,,,,,71514-1,1,16,cat,ball,cat,familiar,familiar,R,cat,Y,rec,7/15/14,11:29,3203,,,,,,,,,,,,,,,,,,,,,,,,,,,,,,,,,,,,,,,,,,,,,,,,,,,,,,,,,,,,,,,,,,,,,71514-1,1,17,monkey,toma,monkey,novel,familiar,R,monkey,Y,MEcontrol,7/15/14,11:29,1142,,,,,,,,,,,,,,,,,,,,,,,,,,,,,,,,,,,,,,,,,,,,,,,,,,,,,,,,,,,,,,,,,,,,,71514-1,1,18,fill3,na,na,na,na,na,na,na,filler,7/15/14,11:29,na,,,,,,,,,,,,,,,,,,,,,,,,,,,,,,,,,,,,,,,,,,,,,,,,,,,,,,,,,,,,,,,,,,,,,71514-1,1,19,dofa,dofa,train,novel,familiar,L,dofa,Y,MEexperimental,7/15/14,11:29,1736,,,,,,,,,,,,,,,,,,,,,,,,,,,,,,,,,,,,,,,,,,,,,,,,,,,,,,,,,,,,,,,,,,,,,71514-1,1,20,fep,car,fep,familiar,novel,L,car,N,MEexperimental,7/15/14,11:29,1821,,,,,,,,,,,,,,,,,,,,,,,,,,,,,,,,,,,,,,,,,,,,,,,,,,,,,,,,,,,,,,,,,,,,,71514-1,1,21,carrot,carrot,lamp,familiar,familiar,L,carrot,Y,rec,7/15/14,11:29,1352,,,,,,,,,,,,,,,,,,,,,,,,,,,,,,,,,,,,,,,,,,,,,,,,,,,,,,,,,,,,,,,,,,,,,71514-1,1,22,shovel,shovel,modi,familiar,novel,L,shovel,Y,MEcontrol,7/15/14,11:29,1381,,,,,,,,,,,,,,,,,,,,,,,,,,,,,,,,,,,,,,,,,,,,,,,,,,,,,,,,,,,,,,,,,,,,,71514-1,1,23,hammer,sheep,hammer,familiar,familiar,R,hammer,Y,rec,7/15/14,11:29,1118,,,,,,,,,,,,,,,,,,,,,,,,,,,,,,,,,,,,,,,,,,,,,,,,,,,,,,,,,,,,,,,,,,,,,71514-1,1,24,fill4,na,na,na,na,na,na,na,filler,7/15/14,11:29,na,,,,,,,,,,,,,,,,,,,,,,,,,,,,,,,,,,,,,,,,,,,,,,,,,,,,,,,,,,,,,,,,,,,,,71514-1,1,25,wug,apple,wug,familiar,novel,R,wug,Y,MEexperimental,7/15/14,11:29,2573,,,,,,,,,,,,,,,,,,,,,,,,,,,,,,,,,,,,,,,,,,,,,,,,,,,,,,,,,,,,,,,,,,,,,71514-1,1,26,shoe,shoe,kreeb,familiar,novel,L,shoe,Y,MEcontrol,7/15/14,11:29,1442,,,,,,,,,,,,,,,,,,,,,,,,,,,,,,,,,,,,,,,,,,,,,,,,,,,,,,,,,,,,,,,,,,,,,71514-1,1,27,horse,horse,clock,familiar,familiar,L,horse,Y,rec,7/15/14,11:29,1278,,,,,,,,,,,,,,,,,,,,,,,,,,,,,,,,,,,,,,,,,,,,,,,,,,,,,,,,,,,,,,,,,,,,,71514-1,1,28,bottle,bird,bottle,familiar,familiar,R,bottle,Y,rec,7/15/14,11:29,1171,,,,,,,,,,,,,,,,,,,,,,,,,,,,,,,,,,,,,,,,,,,,,,,,,,,,,,,,,,,,,,,,,,,,,71514-2,1,1,dog,dog,book,familiar,familiar,R,book,N,rec,7/15/14,11:45,11238,,,,,,,,,,,,,,,,,,,,,,,,,,,,,,,,,,,,,,,,,,,,,,,,,,,,,,,,,,,,,,,,,,,,,71514-2,1,2,cookie,cookie,baby,familiar,familiar,L,cookie,Y,rec,7/15/14,11:45,1975,,,,,,,,,,,,,,,,,,,,,,,,,,,,,,,,,,,,,,,,,,,,,,,,,,,,,,,,,,,,,,,,,,,,,71514-2,1,3,car,fep,car,novel,familiar,R,car,Y,MEcontrol,7/15/14,11:45,1154,,,,,,,,,,,,,,,,,,,,,,,,,,,,,,,,,,,,,,,,,,,,,,,,,,,,,,,,,,,,,,,,,,,,,71514-2,1,4,dax,dax,cup,novel,familiar,L,dax,Y,MEexperimental,7/15/14,11:45,1430,,,,,,,,,,,,,,,,,,,,,,,,,,,,,,,,,,,,,,,,,,,,,,,,,,,,,,,,,,,,,,,,,,,,,71514-2,1,6,fill1,na,na,na,na,na,na,na,filler,7/15/14,11:45,na,,,,,,,,,,,,,,,,,,,,,,,,,,,,,,,,,,,,,,,,,,,,,,,,,,,,,,,,,,,,,,,,,,,,,71514-2,1,5,frog,pifo,frog,novel,familiar,R,frog,Y,MEcontrol,7/15/14,11:45,1060,,,,,,,,,,,,,,,,,,,,,,,,,,,,,,,,,,,,,,,,,,,,,,,,,,,,,,,,,,,,,,,,,,,,,71514-2,1,7,lion,table,lion,familiar,familiar,R,lion,Y,rec,7/15/14,11:45,1207,,,,,,,,,,,,,,,,,,,,,,,,,,,,,,,,,,,,,,,,,,,,,,,,,,,,,,,,,,,,,,,,,,,,,71514-2,1,8,modi,modi,shovel,novel,familiar,L,modi,Y,MEexperimental,7/15/14,11:45,1628,,,,,,,,,,,,,,,,,,,,,,,,,,,,,,,,,,,,,,,,,,,,,,,,,,,,,,,,,,,,,,,,,,,,,71514-2,1,9,apple,wug,apple,novel,familiar,R,apple,Y,MEcontrol,7/15/14,11:45,1253,,,,,,,,,,,,,,,,,,,,,,,,,,,,,,,,,,,,,,,,,,,,,,,,,,,,,,,,,,,,,,,,,,,,,71514-2,1,10,train,train,dofa,familiar,novel,L,train,Y,MEcontrol,7/15/14,11:45,1071,,,,,,,,,,,,,,,,,,,,,,,,,,,,,,,,,,,,,,,,,,,,,,,,,,,,,,,,,,,,,,,,,,,,,71514-2,1,12,fill2,na,na,na,na,na,na,na,filler,7/15/14,11:45,na,,,,,,,,,,,,,,,,,,,,,,,,,,,,,,,,,,,,,,,,,,,,,,,,,,,,,,,,,,,,,,,,,,,,,71514-2,1,11,toma,monkey,toma,familiar,novel,R,toma,Y,MEexperimental,7/15/14,11:45,1696,,,,,,,,,,,,,,,,,,,,,,,,,,,,,,,,,,,,,,,,,,,,,,,,,,,,,,,,,,,,,,,,,,,,,71514-2,1,13,pifo,frog,pifo,familiar,novel,R,pifo,Y,MEexperimental,7/15/14,11:45,1158,,,,,,,,,,,,,,,,,,,,,,,,,,,,,,,,,,,,,,,,,,,,,,,,,,,,,,,,,,,,,,,,,,,,,71514-2,1,14,cup,cup,dax,familiar,novel,L,cup,Y,MEcontrol,7/15/14,11:45,1741,,,,,,,,,,,,,,,,,,,,,,,,,,,,,,,,,,,,,,,,,,,,,,,,,,,,,,,,,,,,,,,,,,,,,71514-2,1,15,kreeb,kreeb,shoe,novel,familiar,L,kreeb,Y,MEexperimental,7/15/14,11:45,2405,,,,,,,,,,,,,,,,,,,,,,,,,,,,,,,,,,,,,,,,,,,,,,,,,,,,,,,,,,,,,,,,,,,,,71514-2,1,16,cat,ball,cat,familiar,familiar,R,cat,Y,rec,7/15/14,11:45,1267,,,,,,,,,,,,,,,,,,,,,,,,,,,,,,,,,,,,,,,,,,,,,,,,,,,,,,,,,,,,,,,,,,,,,71514-2,1,17,monkey,toma,monkey,novel,familiar,R,monkey,Y,MEcontrol,7/15/14,11:45,1394,,,,,,,,,,,,,,,,,,,,,,,,,,,,,,,,,,,,,,,,,,,,,,,,,,,,,,,,,,,,,,,,,,,,,71514-2,1,18,fill3,na,na,na,na,na,na,na,filler,7/15/14,11:45,na,,,,,,,,,,,,,,,,,,,,,,,,,,,,,,,,,,,,,,,,,,,,,,,,,,,,,,,,,,,,,,,,,,,,,71514-2,1,19,dofa,dofa,train,novel,familiar,L,dofa,Y,MEexperimental,7/15/14,11:45,1429,,,,,,,,,,,,,,,,,,,,,,,,,,,,,,,,,,,,,,,,,,,,,,,,,,,,,,,,,,,,,,,,,,,,,71514-2,1,20,fep,car,fep,familiar,novel,R,fep,Y,MEexperimental,7/15/14,11:45,1625,,,,,,,,,,,,,,,,,,,,,,,,,,,,,,,,,,,,,,,,,,,,,,,,,,,,,,,,,,,,,,,,,,,,,71514-2,1,21,carrot,carrot,lamp,familiar,familiar,L,carrot,Y,rec,7/15/14,11:45,1194,,,,,,,,,,,,,,,,,,,,,,,,,,,,,,,,,,,,,,,,,,,,,,,,,,,,,,,,,,,,,,,,,,,,,71514-2,1,22,shovel,shovel,modi,familiar,novel,L,shovel,Y,MEcontrol,7/15/14,11:45,1301,,,,,,,,,,,,,,,,,,,,,,,,,,,,,,,,,,,,,,,,,,,,,,,,,,,,,,,,,,,,,,,,,,,,,71514-2,1,24,fill4,na,na,na,na,na,na,na,filler,7/15/14,11:45,na,,,,,,,,,,,,,,,,,,,,,,,,,,,,,,,,,,,,,,,,,,,,,,,,,,,,,,,,,,,,,,,,,,,,,71514-2,1,23,hammer,sheep,hammer,familiar,familiar,R,hammer,Y,rec,7/15/14,11:45,1085,,,,,,,,,,,,,,,,,,,,,,,,,,,,,,,,,,,,,,,,,,,,,,,,,,,,,,,,,,,,,,,,,,,,,71514-2,1,25,wug,apple,wug,familiar,novel,R,wug,Y,MEexperimental,7/15/14,11:45,1512,,,,,,,,,,,,,,,,,,,,,,,,,,,,,,,,,,,,,,,,,,,,,,,,,,,,,,,,,,,,,,,,,,,,,71514-2,1,26,shoe,shoe,kreeb,familiar,novel,L,shoe,Y,MEcontrol,7/15/14,11:45,1119,,,,,,,,,,,,,,,,,,,,,,,,,,,,,,,,,,,,,,,,,,,,,,,,,,,,,,,,,,,,,,,,,,,,,71514-2,1,27,horse,horse,clock,familiar,familiar,L,horse,Y,rec,7/15/14,11:45,1290,,,,,,,,,,,,,,,,,,,,,,,,,,,,,,,,,,,,,,,,,,,,,,,,,,,,,,,,,,,,,,,,,,,,,71514-2,1,28,bottle,bird,bottle,familiar,familiar,R,bottle,Y,rec,7/15/14,11:45,1170,,,,,,,,,,,,,,,,,,,,,,,,,,,,,,,,,,,,,,,,,,,,,,,,,,,,,,,,,,,,,,,,,,,,,71514-3,2,1,bottle,bottle,bird,familiar,familiar,L,bottle,Y,rec,7/15/14,11:57,1718,,,,,,,,,,,,,,,,,,,,,,,,,,,,,,,,,,,,,,,,,,,,,,,,,,,,,,,,,,,,,,,,,,,,,71514-3,2,2,horse,clock,horse,familiar,familiar,R,horse,Y,rec,7/15/14,11:57,1387,,,,,,,,,,,,,,,,,,,,,,,,,,,,,,,,,,,,,,,,,,,,,,,,,,,,,,,,,,,,,,,,,,,,,71514-3,2,3,shoe,kreeb,shoe,novel,familiar,R,shoe,Y,MEcontrol,7/15/14,11:57,1646,,,,,,,,,,,,,,,,,,,,,,,,,,,,,,,,,,,,,,,,,,,,,,,,,,,,,,,,,,,,,,,,,,,,,71514-3,2,4,wug,wug,apple,novel,familiar,L,wug,Y,MEexperimental,7/15/14,11:57,3918,,,,,,,,,,,,,,,,,,,,,,,,,,,,,,,,,,,,,,,,,,,,,,,,,,,,,,,,,,,,,,,,,,,,,71514-3,2,5,fill4,na,na,na,na,na,na,na,filler,7/15/14,11:57,na,,,,,,,,,,,,,,,,,,,,,,,,,,,,,,,,,,,,,,,,,,,,,,,,,,,,,,,,,,,,,,,,,,,,,71514-3,2,6,hammer,hammer,sheep,familiar,familiar,L,hammer,Y,rec,7/15/14,11:57,1450,,,,,,,,,,,,,,,,,,,,,,,,,,,,,,,,,,,,,,,,,,,,,,,,,,,,,,,,,,,,,,,,,,,,,71514-3,2,7,shovel,modi,shovel,novel,familiar,R,shovel,Y,MEcontrol,7/15/14,11:57,1819,,,,,,,,,,,,,,,,,,,,,,,,,,,,,,,,,,,,,,,,,,,,,,,,,,,,,,,,,,,,,,,,,,,,,71514-3,2,8,carrot,lamp,carrot,familiar,familiar,R,carrot,Y,rec,7/15/14,11:57,1831,,,,,,,,,,,,,,,,,,,,,,,,,,,,,,,,,,,,,,,,,,,,,,,,,,,,,,,,,,,,,,,,,,,,,71514-3,2,9,fep,fep,car,novel,familiar,L,fep,Y,MEexperimental,7/15/14,11:57,2368,,,,,,,,,,,,,,,,,,,,,,,,,,,,,,,,,,,,,,,,,,,,,,,,,,,,,,,,,,,,,,,,,,,,,71514-3,2,10,dofa,train,dofa,familiar,novel,R,dofa,Y,MEexperimental,7/15/14,11:57,1875,,,,,,,,,,,,,,,,,,,,,,,,,,,,,,,,,,,,,,,,,,,,,,,,,,,,,,,,,,,,,,,,,,,,,71514-3,2,11,fill3,na,na,na,na,na,na,na,filler,7/15/14,11:57,na,,,,,,,,,,,,,,,,,,,,,,,,,,,,,,,,,,,,,,,,,,,,,,,,,,,,,,,,,,,,,,,,,,,,,71514-3,2,12,monkey,monkey,toma,familiar,novel,L,monkey,Y,MEcontrol,7/15/14,11:57,2424,,,,,,,,,,,,,,,,,,,,,,,,,,,,,,,,,,,,,,,,,,,,,,,,,,,,,,,,,,,,,,,,,,,,,71514-3,2,13,cat,cat,ball,familiar,familiar,L,cat,Y,rec,7/15/14,11:57,2480,,,,,,,,,,,,,,,,,,,,,,,,,,,,,,,,,,,,,,,,,,,,,,,,,,,,,,,,,,,,,,,,,,,,,71514-3,2,14,kreeb,shoe,kreeb,familiar,novel,R,kreeb,Y,MEexperimental,7/15/14,11:57,2370,,,,,,,,,,,,,,,,,,,,,,,,,,,,,,,,,,,,,,,,,,,,,,,,,,,,,,,,,,,,,,,,,,,,,71514-3,2,15,cup,dax,cup,novel,familiar,R,cup,Y,MEcontrol,7/15/14,11:57,6487,,,,,,,,,,,,,,,,,,,,,,,,,,,,,,,,,,,,,,,,,,,,,,,,,,,,,,,,,,,,,,,,,,,,,71514-3,2,17,fill2,na,na,na,na,na,na,na,filler,7/15/14,11:57,na,,,,,,,,,,,,,,,,,,,,,,,,,,,,,,,,,,,,,,,,,,,,,,,,,,,,,,,,,,,,,,,,,,,,,71514-3,2,16,pifo,pifo,frog,novel,familiar,L,pifo,Y,MEexperimental,7/15/14,11:57,1443,,,,,,,,,,,,,,,,,,,,,,,,,,,,,,,,,,,,,,,,,,,,,,,,,,,,,,,,,,,,,,,,,,,,,71514-3,2,18,toma,toma,monkey,novel,familiar,L,toma,Y,MEexperimental,7/15/14,11:57,2333,,,,,,,,,,,,,,,,,,,,,,,,,,,,,,,,,,,,,,,,,,,,,,,,,,,,,,,,,,,,,,,,,,,,,71514-3,2,19,train,dofa,train,novel,familiar,R,train,Y,MEcontrol,7/15/14,11:57,2021,,,,,,,,,,,,,,,,,,,,,,,,,,,,,,,,,,,,,,,,,,,,,,,,,,,,,,,,,,,,,,,,,,,,,71514-3,2,20,apple,apple,wug,familiar,novel,L,apple,Y,MEcontrol,7/15/14,11:57,8067,,,,,,,,,,,,,,,,,,,,,,,,,,,,,,,,,,,,,,,,,,,,,,,,,,,,,,,,,,,,,,,,,,,,,71514-3,2,21,modi,shovel,modi,familiar,novel,R,modi,Y,MEexperimental,7/15/14,11:57,3387,,,,,,,,,,,,,,,,,,,,,,,,,,,,,,,,,,,,,,,,,,,,,,,,,,,,,,,,,,,,,,,,,,,,,71514-3,2,23,fill1,na,na,na,na,na,na,na,filler,7/15/14,11:57,na,,,,,,,,,,,,,,,,,,,,,,,,,,,,,,,,,,,,,,,,,,,,,,,,,,,,,,,,,,,,,,,,,,,,,71514-3,2,22,lion,lion,table,familiar,familiar,L,lion,Y,rec,7/15/14,11:57,1562,,,,,,,,,,,,,,,,,,,,,,,,,,,,,,,,,,,,,,,,,,,,,,,,,,,,,,,,,,,,,,,,,,,,,71514-4,1,1,dog,dog,book,familiar,familiar,L,dog,Y,rec,7/15/14,12:06,485,,,,,,,,,,,,,,,,,,,,,,,,,,,,,,,,,,,,,,,,,,,,,,,,,,,,,,,,,,,,,,,,,,,,,71514-4,1,2,cookie,cookie,baby,familiar,familiar,R,baby,N,rec,7/15/14,12:06,410,,,,,,,,,,,,,,,,,,,,,,,,,,,,,,,,,,,,,,,,,,,,,,,,,,,,,,,,,,,,,,,,,,,,,71514-4,1,3,car,fep,car,novel,familiar,R,car,Y,MEcontrol,7/15/14,12:06,1577,,,,,,,,,,,,,,,,,,,,,,,,,,,,,,,,,,,,,,,,,,,,,,,,,,,,,,,,,,,,,,,,,,,,,71514-4,1,4,dax,dax,cup,novel,familiar,R,cup,N,MEexperimental,7/15/14,12:06,3592,,,,,,,,,,,,,,,,,,,,,,,,,,,,,,,,,,,,,,,,,,,,,,,,,,,,,,,,,,,,,,,,,,,,,71514-4,1,5,frog,pifo,frog,novel,familiar,R,frog,Y,MEcontrol,7/15/14,12:06,998,,,,,,,,,,,,,,,,,,,,,,,,,,,,,,,,,,,,,,,,,,,,,,,,,,,,,,,,,,,,,,,,,,,,,71514-4,1,6,fill1,na,na,na,na,na,na,na,filler,7/15/14,12:06,na,,,,,,,,,,,,,,,,,,,,,,,,,,,,,,,,,,,,,,,,,,,,,,,,,,,,,,,,,,,,,,,,,,,,,71514-4,1,7,lion,table,lion,familiar,familiar,R,lion,Y,rec,7/15/14,12:06,1213,,,,,,,,,,,,,,,,,,,,,,,,,,,,,,,,,,,,,,,,,,,,,,,,,,,,,,,,,,,,,,,,,,,,,71514-4,1,8,modi,modi,shovel,novel,familiar,R,shovel,N,MEexperimental,7/15/14,12:06,2843,,,,,,,,,,,,,,,,,,,,,,,,,,,,,,,,,,,,,,,,,,,,,,,,,,,,,,,,,,,,,,,,,,,,,71514-4,1,9,apple,wug,apple,novel,familiar,R,apple,Y,MEcontrol,7/15/14,12:06,1648,,,,,,,,,,,,,,,,,,,,,,,,,,,,,,,,,,,,,,,,,,,,,,,,,,,,,,,,,,,,,,,,,,,,,71514-4,1,10,train,train,dofa,familiar,novel,L,train,Y,MEcontrol,7/15/14,12:06,1917,,,,,,,,,,,,,,,,,,,,,,,,,,,,,,,,,,,,,,,,,,,,,,,,,,,,,,,,,,,,,,,,,,,,,71514-4,1,11,toma,monkey,toma,familiar,novel,L,monkey,N,MEexperimental,7/15/14,12:06,2569,,,,,,,,,,,,,,,,,,,,,,,,,,,,,,,,,,,,,,,,,,,,,,,,,,,,,,,,,,,,,,,,,,,,,71514-4,1,12,fill2,na,na,na,na,na,na,na,filler,7/15/14,12:06,na,,,,,,,,,,,,,,,,,,,,,,,,,,,,,,,,,,,,,,,,,,,,,,,,,,,,,,,,,,,,,,,,,,,,,71514-4,1,13,pifo,frog,pifo,familiar,novel,R,pifo,Y,MEexperimental,7/15/14,12:06,3700,,,,,,,,,,,,,,,,,,,,,,,,,,,,,,,,,,,,,,,,,,,,,,,,,,,,,,,,,,,,,,,,,,,,,71514-4,1,14,cup,cup,dax,familiar,novel,L,cup,Y,MEcontrol,7/15/14,12:06,2211,,,,,,,,,,,,,,,,,,,,,,,,,,,,,,,,,,,,,,,,,,,,,,,,,,,,,,,,,,,,,,,,,,,,,71514-4,1,15,kreeb,kreeb,shoe,novel,familiar,L,kreeb,Y,MEexperimental,7/15/14,12:06,5248,,,,,,,,,,,,,,,,,,,,,,,,,,,,,,,,,,,,,,,,,,,,,,,,,,,,,,,,,,,,,,,,,,,,,71514-4,1,16,cat,ball,cat,familiar,familiar,R,cat,Y,rec,7/15/14,12:06,1828,,,,,,,,,,,,,,,,,,,,,,,,,,,,,,,,,,,,,,,,,,,,,,,,,,,,,,,,,,,,,,,,,,,,,71514-4,1,17,monkey,toma,monkey,novel,familiar,R,monkey,Y,MEcontrol,7/15/14,12:06,1788,,,,,,,,,,,,,,,,,,,,,,,,,,,,,,,,,,,,,,,,,,,,,,,,,,,,,,,,,,,,,,,,,,,,,71514-4,1,18,fill3,na,na,na,na,na,na,na,filler,7/15/14,12:06,na,,,,,,,,,,,,,,,,,,,,,,,,,,,,,,,,,,,,,,,,,,,,,,,,,,,,,,,,,,,,,,,,,,,,,71514-4,1,19,dofa,dofa,train,novel,familiar,R,train,N,MEexperimental,7/15/14,12:06,2341,,,,,,,,,,,,,,,,,,,,,,,,,,,,,,,,,,,,,,,,,,,,,,,,,,,,,,,,,,,,,,,,,,,,,71514-4,1,20,fep,car,fep,familiar,novel,R,fep,Y,MEexperimental,7/15/14,12:06,3053,,,,,,,,,,,,,,,,,,,,,,,,,,,,,,,,,,,,,,,,,,,,,,,,,,,,,,,,,,,,,,,,,,,,,71514-4,1,21,carrot,carrot,lamp,familiar,familiar,L,carrot,Y,rec,7/15/14,12:06,1498,,,,,,,,,,,,,,,,,,,,,,,,,,,,,,,,,,,,,,,,,,,,,,,,,,,,,,,,,,,,,,,,,,,,,71514-4,1,22,shovel,shovel,modi,familiar,novel,L,shovel,Y,MEcontrol,7/15/14,12:06,2643,,,,,,,,,,,,,,,,,,,,,,,,,,,,,,,,,,,,,,,,,,,,,,,,,,,,,,,,,,,,,,,,,,,,,71514-4,1,23,hammer,sheep,hammer,familiar,familiar,L,sheep,N,rec,7/15/14,12:06,2078,,,,,,,,,,,,,,,,,,,,,,,,,,,,,,,,,,,,,,,,,,,,,,,,,,,,,,,,,,,,,,,,,,,,,71514-4,1,24,fill4,na,na,na,na,na,na,na,filler,7/15/14,12:06,na,,,,,,,,,,,,,,,,,,,,,,,,,,,,,,,,,,,,,,,,,,,,,,,,,,,,,,,,,,,,,,,,,,,,,71514-5,1,1,dog,dog,book,familiar,familiar,R,book,N,rec,7/15/14,12:19,2963,,,,,,,,,,,,,,,,,,,,,,,,,,,,,,,,,,,,,,,,,,,,,,,,,,,,,,,,,,,,,,,,,,,,,71514-5,1,2,cookie,cookie,baby,familiar,familiar,R,baby,N,rec,7/15/14,12:19,9677,,,,,,,,,,,,,,,,,,,,,,,,,,,,,,,,,,,,,,,,,,,,,,,,,,,,,,,,,,,,,,,,,,,,,71514-5,1,3,car,fep,car,novel,familiar,R,car,Y,MEcontrol,7/15/14,12:19,8363,,,,,,,,,,,,,,,,,,,,,,,,,,,,,,,,,,,,,,,,,,,,,,,,,,,,,,,,,,,,,,,,,,,,,71514-5,1,4,dax,dax,cup,novel,familiar,L,dax,Y,MEexperimental,7/15/14,12:19,1311,,,,,,,,,,,,,,,,,,,,,,,,,,,,,,,,,,,,,,,,,,,,,,,,,,,,,,,,,,,,,,,,,,,,,71514-5,1,5,frog,pifo,frog,novel,familiar,L,pifo,N,MEcontrol,7/15/14,12:19,2554,,,,,,,,,,,,,,,,,,,,,,,,,,,,,,,,,,,,,,,,,,,,,,,,,,,,,,,,,,,,,,,,,,,,,71514-5,1,6,fill1,na,na,na,na,na,na,na,filler,7/15/14,12:19,na,,,,,,,,,,,,,,,,,,,,,,,,,,,,,,,,,,,,,,,,,,,,,,,,,,,,,,,,,,,,,,,,,,,,,71514-5,1,7,lion,table,lion,familiar,familiar,L,table,N,rec,7/15/14,12:19,8449,,,,,,,,,,,,,,,,,,,,,,,,,,,,,,,,,,,,,,,,,,,,,,,,,,,,,,,,,,,,,,,,,,,,,71514-5,1,8,modi,modi,shovel,novel,familiar,R,shovel,N,MEexperimental,7/15/14,12:19,6935,,,,,,,,,,,,,,,,,,,,,,,,,,,,,,,,,,,,,,,,,,,,,,,,,,,,,,,,,,,,,,,,,,,,,71514-5,1,9,apple,wug,apple,novel,familiar,L,wug,N,MEcontrol,7/15/14,12:19,779,,,,,,,,,,,,,,,,,,,,,,,,,,,,,,,,,,,,,,,,,,,,,,,,,,,,,,,,,,,,,,,,,,,,,71514-5,1,10,train,train,dofa,familiar,novel,R,dofa,N,MEcontrol,7/15/14,12:19,14539,,,,,,,,,,,,,,,,,,,,,,,,,,,,,,,,,,,,,,,,,,,,,,,,,,,,,,,,,,,,,,,,,,,,,71514-5,1,12,fill2,na,na,na,na,na,na,na,filler,7/15/14,12:19,na,,,,,,,,,,,,,,,,,,,,,,,,,,,,,,,,,,,,,,,,,,,,,,,,,,,,,,,,,,,,,,,,,,,,,71514-5,1,11,toma,monkey,toma,familiar,novel,L,monkey,N,MEexperimental,7/15/14,12:19,1736,,,,,,,,,,,,,,,,,,,,,,,,,,,,,,,,,,,,,,,,,,,,,,,,,,,,,,,,,,,,,,,,,,,,,71514-6,1,1,dog,dog,book,familiar,familiar,L,dog,Y,rec,7/15/14,12:33,1468,,,,,,,,,,,,,,,,,,,,,,,,,,,,,,,,,,,,,,,,,,,,,,,,,,,,,,,,,,,,,,,,,,,,,71514-6,1,2,cookie,cookie,baby,familiar,familiar,L,cookie,Y,rec,7/15/14,12:33,1439,,,,,,,,,,,,,,,,,,,,,,,,,,,,,,,,,,,,,,,,,,,,,,,,,,,,,,,,,,,,,,,,,,,,,71514-6,1,3,car,fep,car,novel,familiar,R,car,Y,MEcontrol,7/15/14,12:33,973,,,,,,,,,,,,,,,,,,,,,,,,,,,,,,,,,,,,,,,,,,,,,,,,,,,,,,,,,,,,,,,,,,,,,71514-6,1,4,dax,dax,cup,novel,familiar,L,dax,Y,MEexperimental,7/15/14,12:33,1747,,,,,,,,,,,,,,,,,,,,,,,,,,,,,,,,,,,,,,,,,,,,,,,,,,,,,,,,,,,,,,,,,,,,,71514-6,1,5,frog,pifo,frog,novel,familiar,R,frog,Y,MEcontrol,7/15/14,12:33,1292,,,,,,,,,,,,,,,,,,,,,,,,,,,,,,,,,,,,,,,,,,,,,,,,,,,,,,,,,,,,,,,,,,,,,71514-6,1,6,fill1,na,na,na,na,na,na,na,filler,7/15/14,12:33,na,,,,,,,,,,,,,,,,,,,,,,,,,,,,,,,,,,,,,,,,,,,,,,,,,,,,,,,,,,,,,,,,,,,,,71514-6,1,7,lion,table,lion,familiar,familiar,R,lion,Y,rec,7/15/14,12:33,1375,,,,,,,,,,,,,,,,,,,,,,,,,,,,,,,,,,,,,,,,,,,,,,,,,,,,,,,,,,,,,,,,,,,,,71514-6,1,8,modi,modi,shovel,novel,familiar,R,shovel,N,MEexperimental,7/15/14,12:33,1363,,,,,,,,,,,,,,,,,,,,,,,,,,,,,,,,,,,,,,,,,,,,,,,,,,,,,,,,,,,,,,,,,,,,,71514-6,1,9,apple,wug,apple,novel,familiar,R,apple,Y,MEcontrol,7/15/14,12:33,1028,,,,,,,,,,,,,,,,,,,,,,,,,,,,,,,,,,,,,,,,,,,,,,,,,,,,,,,,,,,,,,,,,,,,,71514-6,1,10,train,train,dofa,familiar,novel,L,train,Y,MEcontrol,7/15/14,12:33,1531,,,,,,,,,,,,,,,,,,,,,,,,,,,,,,,,,,,,,,,,,,,,,,,,,,,,,,,,,,,,,,,,,,,,,71514-6,1,11,toma,monkey,toma,familiar,novel,R,toma,Y,MEexperimental,7/15/14,12:33,1960,,,,,,,,,,,,,,,,,,,,,,,,,,,,,,,,,,,,,,,,,,,,,,,,,,,,,,,,,,,,,,,,,,,,,71514-6,1,12,fill2,na,na,na,na,na,na,na,filler,7/15/14,12:33,na,,,,,,,,,,,,,,,,,,,,,,,,,,,,,,,,,,,,,,,,,,,,,,,,,,,,,,,,,,,,,,,,,,,,,71514-6,1,13,pifo,frog,pifo,familiar,novel,R,pifo,Y,MEexperimental,7/15/14,12:33,1219,,,,,,,,,,,,,,,,,,,,,,,,,,,,,,,,,,,,,,,,,,,,,,,,,,,,,,,,,,,,,,,,,,,,,71514-6,1,14,cup,cup,dax,familiar,novel,L,cup,Y,MEcontrol,7/15/14,12:33,7093,,,,,,,,,,,,,,,,,,,,,,,,,,,,,,,,,,,,,,,,,,,,,,,,,,,,,,,,,,,,,,,,,,,,,71514-6,1,15,kreeb,kreeb,shoe,novel,familiar,L,kreeb,Y,MEexperimental,7/15/14,12:33,1079,,,,,,,,,,,,,,,,,,,,,,,,,,,,,,,,,,,,,,,,,,,,,,,,,,,,,,,,,,,,,,,,,,,,,71514-6,1,16,cat,ball,cat,familiar,familiar,R,cat,Y,rec,7/15/14,12:33,1130,,,,,,,,,,,,,,,,,,,,,,,,,,,,,,,,,,,,,,,,,,,,,,,,,,,,,,,,,,,,,,,,,,,,,71514-6,1,17,monkey,toma,monkey,novel,familiar,R,monkey,Y,MEcontrol,7/15/14,12:33,1133,,,,,,,,,,,,,,,,,,,,,,,,,,,,,,,,,,,,,,,,,,,,,,,,,,,,,,,,,,,,,,,,,,,,,71514-6,1,18,fill3,na,na,na,na,na,na,na,filler,7/15/14,12:33,na,,,,,,,,,,,,,,,,,,,,,,,,,,,,,,,,,,,,,,,,,,,,,,,,,,,,,,,,,,,,,,,,,,,,,