subject id,list,trial number,word,pic1,pic2,pic1type,pic2type,side clicked,chosenpic,response,trial type,datetesting,time,reaction time71114-1,1,1,dog,dog,book,familiar,familiar,L,dog,Y,rec,7/11/14,13:47,170571114-1,1,2,cookie,cookie,baby,familiar,familiar,L,cookie,Y,rec,7/11/14,13:47,139271114-1,1,3,car,fep,car,novel,familiar,R,car,Y,MEcontrol,7/11/14,13:47,287471114-1,1,4,dax,dax,cup,novel,familiar,L,dax,Y,MEexperimental,7/11/14,13:47,171871114-1,1,5,frog,pifo,frog,novel,familiar,R,frog,Y,MEcontrol,7/11/14,13:47,111771114-1,1,6,fill1,na,na,na,na,na,na,na,filler,7/11/14,13:47,na71114-1,1,7,lion,table,lion,familiar,familiar,R,lion,Y,rec,7/11/14,13:47,138771114-1,1,8,modi,modi,shovel,novel,familiar,L,modi,Y,MEexperimental,7/11/14,13:47,300871114-1,1,9,apple,wug,apple,novel,familiar,R,apple,Y,MEcontrol,7/11/14,13:47,119371114-1,1,10,train,train,dofa,familiar,novel,L,train,Y,MEcontrol,7/11/14,13:47,153671114-1,1,11,toma,monkey,toma,familiar,novel,R,toma,Y,MEexperimental,7/11/14,13:47,1351471114-1,1,12,fill2,na,na,na,na,na,na,na,filler,7/11/14,13:47,na71114-1,1,13,pifo,frog,pifo,familiar,novel,R,pifo,Y,MEexperimental,7/11/14,13:47,253071114-1,1,15,kreeb,kreeb,shoe,novel,familiar,R,shoe,N,MEexperimental,7/11/14,13:47,295371114-1,1,16,cat,ball,cat,familiar,familiar,R,cat,Y,rec,7/11/14,13:47,139971114-1,1,14,cup,cup,dax,familiar,novel,L,cup,Y,MEcontrol,7/11/14,13:47,130371114-1,1,17,monkey,toma,monkey,novel,familiar,R,monkey,Y,MEcontrol,7/11/14,13:47,156271114-1,1,18,fill3,na,na,na,na,na,na,na,filler,7/11/14,13:47,na71114-1,1,19,dofa,dofa,train,novel,familiar,L,dofa,Y,MEexperimental,7/11/14,13:47,415771114-1,1,20,fep,car,fep,familiar,novel,R,fep,Y,MEexperimental,7/11/14,13:47,154071114-1,1,21,carrot,carrot,lamp,familiar,familiar,L,carrot,Y,rec,7/11/14,13:47,147471114-1,1,22,shovel,shovel,modi,familiar,novel,L,shovel,Y,MEcontrol,7/11/14,13:47,217971114-1,1,23,hammer,sheep,hammer,familiar,familiar,R,hammer,Y,rec,7/11/14,13:47,279271114-1,1,24,fill4,na,na,na,na,na,na,na,filler,7/11/14,13:47,na71114-1,1,25,wug,apple,wug,familiar,novel,R,wug,Y,MEexperimental,7/11/14,13:47,208071114-1,1,26,shoe,shoe,kreeb,familiar,novel,L,shoe,Y,MEcontrol,7/11/14,13:47,186371114-1,1,27,horse,horse,clock,familiar,familiar,L,horse,Y,rec,7/11/14,13:47,149071114-1,1,28,bottle,bird,bottle,familiar,familiar,R,bottle,Y,rec,7/11/14,13:47,203871114-2,1,1,dog,dog,book,familiar,familiar,L,dog,Y,rec,7/11/14,13:59,341471114-2,1,2,cookie,cookie,baby,familiar,familiar,L,cookie,Y,rec,7/11/14,13:59,136871114-2,1,3,car,fep,car,novel,familiar,R,car,Y,MEcontrol,7/11/14,13:59,141171114-2,1,4,dax,dax,cup,novel,familiar,L,dax,Y,MEexperimental,7/11/14,13:59,186371114-2,1,5,frog,pifo,frog,novel,familiar,R,frog,Y,MEcontrol,7/11/14,13:59,116271114-2,1,6,fill1,na,na,na,na,na,na,na,filler,7/11/14,13:59,na71114-2,1,7,lion,table,lion,familiar,familiar,R,lion,Y,rec,7/11/14,13:59,145971114-2,1,8,modi,modi,shovel,novel,familiar,L,modi,Y,MEexperimental,7/11/14,13:59,189371114-2,1,9,apple,wug,apple,novel,familiar,R,apple,Y,MEcontrol,7/11/14,13:59,122771114-2,1,10,train,train,dofa,familiar,novel,L,train,Y,MEcontrol,7/11/14,13:59,132571114-2,1,11,toma,monkey,toma,familiar,novel,R,toma,Y,MEexperimental,7/11/14,13:59,161871114-2,1,12,fill2,na,na,na,na,na,na,na,filler,7/11/14,13:59,na71114-2,1,13,pifo,frog,pifo,familiar,novel,R,pifo,Y,MEexperimental,7/11/14,13:59,157071114-2,1,14,cup,cup,dax,familiar,novel,L,cup,Y,MEcontrol,7/11/14,13:59,167871114-2,1,15,kreeb,kreeb,shoe,novel,familiar,R,shoe,N,MEexperimental,7/11/14,13:59,178671114-2,1,16,cat,ball,cat,familiar,familiar,R,cat,Y,rec,7/11/14,13:59,149871114-2,1,17,monkey,toma,monkey,novel,familiar,R,monkey,Y,MEcontrol,7/11/14,13:59,138771114-2,1,18,fill3,na,na,na,na,na,na,na,filler,7/11/14,13:59,na71114-2,1,19,dofa,dofa,train,novel,familiar,L,dofa,Y,MEexperimental,7/11/14,13:59,182171114-2,1,20,fep,car,fep,familiar,novel,R,fep,Y,MEexperimental,7/11/14,13:59,137371114-2,1,21,carrot,carrot,lamp,familiar,familiar,L,carrot,Y,rec,7/11/14,13:59,136071114-2,1,22,shovel,shovel,modi,familiar,novel,L,shovel,Y,MEcontrol,7/11/14,13:59,138471114-2,1,24,fill4,na,na,na,na,na,na,na,filler,7/11/14,13:59,na71114-2,1,23,hammer,sheep,hammer,familiar,familiar,R,hammer,Y,rec,7/11/14,13:59,165571114-2,1,25,wug,apple,wug,familiar,novel,R,wug,Y,MEexperimental,7/11/14,13:59,195471114-2,1,26,shoe,shoe,kreeb,familiar,novel,L,shoe,Y,MEcontrol,7/11/14,13:59,222671114-2,1,27,horse,horse,clock,familiar,familiar,L,horse,Y,rec,7/11/14,13:59,136271114-2,1,28,bottle,bird,bottle,familiar,familiar,R,bottle,Y,rec,7/11/14,13:59,193371114-3,1,1,dog,dog,book,familiar,familiar,L,dog,Y,rec,7/11/14,14:33,820671114-3,1,2,cookie,cookie,baby,familiar,familiar,R,baby,N,rec,7/11/14,14:33,420471114-3,1,3,car,fep,car,novel,familiar,R,car,Y,MEcontrol,7/11/14,14:33,886571114-3,1,4,dax,dax,cup,novel,familiar,L,dax,Y,MEexperimental,7/11/14,14:33,51371114-3,1,5,frog,pifo,frog,novel,familiar,R,frog,Y,MEcontrol,7/11/14,14:33,999471114-3,1,6,fill1,na,na,na,na,na,na,na,filler,7/11/14,14:33,na71114-3,1,7,lion,table,lion,familiar,familiar,R,lion,Y,rec,7/11/14,14:33,95571114-3,1,8,modi,modi,shovel,novel,familiar,R,shovel,N,MEexperimental,7/11/14,14:33,51071114-3,1,9,apple,wug,apple,novel,familiar,R,apple,Y,MEcontrol,7/11/14,14:33,2037171114-3,1,10,train,train,dofa,familiar,novel,L,train,Y,MEcontrol,7/11/14,14:33,1969171114-3,1,11,toma,monkey,toma,familiar,novel,L,monkey,N,MEexperimental,7/11/14,14:33,246071114-3,1,12,fill2,na,na,na,na,na,na,na,filler,7/11/14,14:33,na71114-3,1,13,pifo,frog,pifo,familiar,novel,R,pifo,Y,MEexperimental,7/11/14,14:33,2351371114-3,1,14,cup,cup,dax,familiar,novel,R,dax,N,MEcontrol,7/11/14,14:33,289871114-3,1,15,kreeb,kreeb,shoe,novel,familiar,L,kreeb,Y,MEexperimental,7/11/14,14:33,103971114-3,1,16,cat,ball,cat,familiar,familiar,R,cat,Y,rec,7/11/14,14:33,370071114-3,1,17,monkey,toma,monkey,novel,familiar,R,monkey,Y,MEcontrol,7/11/14,14:33,93771114-3,1,18,fill3,na,na,na,na,na,na,na,filler,7/11/14,14:33,na71114-3,1,19,dofa,dofa,train,novel,familiar,R,train,N,MEexperimental,7/11/14,14:33,65771114-3,1,20,fep,car,fep,familiar,novel,L,car,N,MEexperimental,7/11/14,14:33,619971114-3,1,21,carrot,carrot,lamp,familiar,familiar,R,lamp,N,rec,7/11/14,14:33,387771114-4,1,1,dog,dog,book,familiar,familiar,L,dog,Y,rec,7/11/14,14:44,194271114-4,1,2,cookie,cookie,baby,familiar,familiar,L,cookie,Y,rec,7/11/14,14:44,90171114-4,1,3,car,fep,car,novel,familiar,R,car,Y,MEcontrol,7/11/14,14:44,123971114-4,1,4,dax,dax,cup,novel,familiar,L,dax,Y,MEexperimental,7/11/14,14:44,146871114-4,1,5,frog,pifo,frog,novel,familiar,R,frog,Y,MEcontrol,7/11/14,14:44,124871114-4,1,6,fill1,na,na,na,na,na,na,na,filler,7/11/14,14:44,na71114-4,1,7,lion,table,lion,familiar,familiar,R,lion,Y,rec,7/11/14,14:44,142071114-4,1,8,modi,modi,shovel,novel,familiar,L,modi,Y,MEexperimental,7/11/14,14:44,192471114-4,1,9,apple,wug,apple,novel,familiar,R,apple,Y,MEcontrol,7/11/14,14:44,102471114-4,1,10,train,train,dofa,familiar,novel,L,train,Y,MEcontrol,7/11/14,14:44,138671114-4,1,11,toma,monkey,toma,familiar,novel,L,monkey,N,MEexperimental,7/11/14,14:44,236871114-4,1,12,fill2,na,na,na,na,na,na,na,filler,7/11/14,14:44,na71114-4,1,13,pifo,frog,pifo,familiar,novel,R,pifo,Y,MEexperimental,7/11/14,14:44,126371114-4,1,14,cup,cup,dax,familiar,novel,L,cup,Y,MEcontrol,7/11/14,14:44,83971114-4,1,15,kreeb,kreeb,shoe,novel,familiar,L,kreeb,Y,MEexperimental,7/11/14,14:44,189871114-4,1,16,cat,ball,cat,familiar,familiar,R,cat,Y,rec,7/11/14,14:44,117071114-4,1,17,monkey,toma,monkey,novel,familiar,R,monkey,Y,MEcontrol,7/11/14,14:44,116071114-4,1,18,fill3,na,na,na,na,na,na,na,filler,7/11/14,14:44,na71114-4,1,19,dofa,dofa,train,novel,familiar,L,dofa,Y,MEexperimental,7/11/14,14:44,129071114-4,1,20,fep,car,fep,familiar,novel,R,fep,Y,MEexperimental,7/11/14,14:44,122871114-4,1,21,carrot,carrot,lamp,familiar,familiar,L,carrot,Y,rec,7/11/14,14:44,136671114-4,1,22,shovel,shovel,modi,familiar,novel,L,shovel,Y,MEcontrol,7/11/14,14:44,107771114-4,1,23,hammer,sheep,hammer,familiar,familiar,R,hammer,Y,rec,7/11/14,14:44,119071114-4,1,24,fill4,na,na,na,na,na,na,na,filler,7/11/14,14:44,na71114-4,1,25,wug,apple,wug,familiar,novel,R,wug,Y,MEexperimental,7/11/14,14:44,131371114-4,1,26,shoe,shoe,kreeb,familiar,novel,L,shoe,Y,MEcontrol,7/11/14,14:44,190571114-4,1,27,horse,horse,clock,familiar,familiar,L,horse,Y,rec,7/11/14,14:44,149571114-4,1,28,bottle,bird,bottle,familiar,familiar,R,bottle,Y,rec,7/11/14,14:44,115971114-5,1,1,dog,dog,book,familiar,familiar,R,book,N,rec,7/11/14,14:57,1626871114-5,1,2,cookie,cookie,baby,familiar,familiar,R,baby,N,rec,7/11/14,14:57,1059871114-5,1,3,car,fep,car,novel,familiar,L,fep,N,MEcontrol,7/11/14,14:57,609571114-5,1,4,dax,dax,cup,novel,familiar,R,cup,N,MEexperimental,7/11/14,14:57,875471114-5,1,5,frog,pifo,frog,novel,familiar,R,frog,Y,MEcontrol,7/11/14,14:57,88671114-5,1,6,fill1,na,na,na,na,na,na,na,filler,7/11/14,14:57,na71114-5,1,7,lion,table,lion,familiar,familiar,R,lion,Y,rec,7/11/14,14:57,877871114-5,1,8,modi,modi,shovel,novel,familiar,R,shovel,N,MEexperimental,7/11/14,14:57,217971114-5,1,9,apple,wug,apple,novel,familiar,R,apple,Y,MEcontrol,7/11/14,14:57,119971114-5,1,10,train,train,dofa,familiar,novel,R,dofa,N,MEcontrol,7/11/14,14:57,670471114-5,1,11,toma,monkey,toma,familiar,novel,L,monkey,N,MEexperimental,7/11/14,14:57,1828571114-5,1,12,fill2,na,na,na,na,na,na,na,filler,7/11/14,14:57,na71114-5,1,13,pifo,frog,pifo,familiar,novel,R,pifo,Y,MEexperimental,7/11/14,14:57,403671114-5,1,14,cup,cup,dax,familiar,novel,R,dax,N,MEcontrol,7/11/14,14:57,205771414-1,1,2,cookie,cookie,baby,familiar,familiar,L,cookie,Y,rec,7/14/14,11:29,138971414-1,1,3,car,fep,car,novel,familiar,R,car,Y,MEcontrol,7/14/14,11:29,113371414-1,1,4,dax,dax,cup,novel,familiar,L,dax,Y,MEexperimental,7/14/14,11:29,301771414-1,1,5,frog,pifo,frog,novel,familiar,R,frog,Y,MEcontrol,7/14/14,11:29,98971414-1,1,6,fill1,na,na,na,na,na,na,na,filler,7/14/14,11:29,na71414-1,1,7,lion,table,lion,familiar,familiar,R,lion,Y,rec,7/14/14,11:29,137171414-1,1,8,modi,modi,shovel,novel,familiar,L,modi,Y,MEexperimental,7/14/14,11:29,164171414-1,1,9,apple,wug,apple,novel,familiar,R,apple,Y,MEcontrol,7/14/14,11:29,173871414-1,1,10,train,train,dofa,familiar,novel,L,train,Y,MEcontrol,7/14/14,11:29,93071414-1,1,11,toma,monkey,toma,familiar,novel,R,toma,Y,MEexperimental,7/14/14,11:29,177671414-1,1,12,fill2,na,na,na,na,na,na,na,filler,7/14/14,11:29,na71414-1,1,13,pifo,frog,pifo,familiar,novel,L,frog,N,MEexperimental,7/14/14,11:29,176971414-1,1,14,cup,cup,dax,familiar,novel,L,cup,Y,MEcontrol,7/14/14,11:29,94371414-1,1,15,kreeb,kreeb,shoe,novel,familiar,R,shoe,N,MEexperimental,7/14/14,11:29,131771414-1,1,16,cat,ball,cat,familiar,familiar,R,cat,Y,rec,7/14/14,11:29,281571414-1,1,17,monkey,toma,monkey,novel,familiar,R,monkey,Y,MEcontrol,7/14/14,11:29,136571414-1,1,18,fill3,na,na,na,na,na,na,na,filler,7/14/14,11:29,na71414-1,1,19,dofa,dofa,train,novel,familiar,L,dofa,Y,MEexperimental,7/14/14,11:29,170771414-1,1,20,fep,car,fep,familiar,novel,R,fep,Y,MEexperimental,7/14/14,11:29,437571414-1,1,21,carrot,carrot,lamp,familiar,familiar,L,carrot,Y,rec,7/14/14,11:29,104071414-1,1,22,shovel,shovel,modi,familiar,novel,R,modi,N,MEcontrol,7/14/14,11:29,126071414-1,1,23,hammer,sheep,hammer,familiar,familiar,R,hammer,Y,rec,7/14/14,11:29,348671414-1,1,24,fill4,na,na,na,na,na,na,na,filler,7/14/14,11:29,na71414-1,1,25,wug,apple,wug,familiar,novel,R,wug,Y,MEexperimental,7/14/14,11:29,164971414-1,1,26,shoe,shoe,kreeb,familiar,novel,L,shoe,Y,MEcontrol,7/14/14,11:29,208671414-1,1,27,horse,horse,clock,familiar,familiar,L,horse,Y,rec,7/14/14,11:29,305871414-1,1,28,bottle,bird,bottle,familiar,familiar,R,bottle,Y,rec,7/14/14,11:29,126871414-2,1,1,dog,dog,book,familiar,familiar,L,dog,Y,rec,7/14/14,11:39,63171414-2,1,2,cookie,cookie,baby,familiar,familiar,L,cookie,Y,rec,7/14/14,11:39,169271414-2,1,3,car,fep,car,novel,familiar,R,car,Y,MEcontrol,7/14/14,11:39,116871414-2,1,4,dax,dax,cup,novel,familiar,L,dax,Y,MEexperimental,7/14/14,11:39,171071414-2,1,5,frog,pifo,frog,novel,familiar,R,frog,Y,MEcontrol,7/14/14,11:39,177071414-2,1,6,fill1,na,na,na,na,na,na,na,filler,7/14/14,11:39,na71414-2,1,7,lion,table,lion,familiar,familiar,R,lion,Y,rec,7/14/14,11:39,196271414-2,1,8,modi,modi,shovel,novel,familiar,L,modi,Y,MEexperimental,7/14/14,11:39,196171414-2,1,9,apple,wug,apple,novel,familiar,R,apple,Y,MEcontrol,7/14/14,11:39,158871414-2,1,10,train,train,dofa,familiar,novel,L,train,Y,MEcontrol,7/14/14,11:39,169371414-2,1,11,toma,monkey,toma,familiar,novel,L,monkey,N,MEexperimental,7/14/14,11:39,279771414-2,1,12,fill2,na,na,na,na,na,na,na,filler,7/14/14,11:39,na71414-2,1,13,pifo,frog,pifo,familiar,novel,R,pifo,Y,MEexperimental,7/14/14,11:39,196271414-2,1,14,cup,cup,dax,familiar,novel,L,cup,Y,MEcontrol,7/14/14,11:39,167971414-2,1,15,kreeb,kreeb,shoe,novel,familiar,R,shoe,N,MEexperimental,7/14/14,11:39,444371414-2,1,16,cat,ball,cat,familiar,familiar,R,cat,Y,rec,7/14/14,11:39,150571414-2,1,17,monkey,toma,monkey,novel,familiar,R,monkey,Y,MEcontrol,7/14/14,11:39,159771414-2,1,18,fill3,na,na,na,na,na,na,na,filler,7/14/14,11:39,na71414-2,1,19,dofa,dofa,train,novel,familiar,L,dofa,Y,MEexperimental,7/14/14,11:39,271871414-2,1,20,fep,car,fep,familiar,novel,L,car,N,MEexperimental,7/14/14,11:39,856471414-2,1,21,carrot,carrot,lamp,familiar,familiar,L,carrot,Y,rec,7/14/14,11:39,195971414-2,1,22,shovel,shovel,modi,familiar,novel,R,modi,N,MEcontrol,7/14/14,11:39,97171414-2,1,24,fill4,na,na,na,na,na,na,na,filler,7/14/14,11:39,na71414-2,1,23,hammer,sheep,hammer,familiar,familiar,R,hammer,Y,rec,7/14/14,11:39,209471414-2,1,25,wug,apple,wug,familiar,novel,R,wug,Y,MEexperimental,7/14/14,11:39,156471414-2,1,26,shoe,shoe,kreeb,familiar,novel,L,shoe,Y,MEcontrol,7/14/14,11:39,260671414-2,1,27,horse,horse,clock,familiar,familiar,L,horse,Y,rec,7/14/14,11:39,160771414-2,1,28,bottle,bird,bottle,familiar,familiar,R,bottle,Y,rec,7/14/14,11:39,266971414-3,1,1,dog,dog,book,familiar,familiar,L,dog,Y,rec,7/14/14,11:50,155171414-3,1,2,cookie,cookie,baby,familiar,familiar,L,cookie,Y,rec,7/14/14,11:50,102871414-3,1,3,car,fep,car,novel,familiar,R,car,Y,MEcontrol,7/14/14,11:50,116671414-3,1,4,dax,dax,cup,novel,familiar,L,dax,Y,MEexperimental,7/14/14,11:50,488971414-3,1,5,frog,pifo,frog,novel,familiar,R,frog,Y,MEcontrol,7/14/14,11:50,215971414-3,1,6,fill1,na,na,na,na,na,na,na,filler,7/14/14,11:50,na71414-3,1,7,lion,table,lion,familiar,familiar,R,lion,Y,rec,7/14/14,11:50,138671414-3,1,8,modi,modi,shovel,novel,familiar,L,modi,Y,MEexperimental,7/14/14,11:50,539171414-3,1,9,apple,wug,apple,novel,familiar,R,apple,Y,MEcontrol,7/14/14,11:50,114271414-3,1,10,train,train,dofa,familiar,novel,L,train,Y,MEcontrol,7/14/14,11:50,127671414-3,1,11,toma,monkey,toma,familiar,novel,R,toma,Y,MEexperimental,7/14/14,11:50,201771414-3,1,12,fill2,na,na,na,na,na,na,na,filler,7/14/14,11:50,na71414-3,1,13,pifo,frog,pifo,familiar,novel,R,pifo,Y,MEexperimental,7/14/14,11:50,154671414-3,1,14,cup,cup,dax,familiar,novel,L,cup,Y,MEcontrol,7/14/14,11:50,92571414-3,1,15,kreeb,kreeb,shoe,novel,familiar,L,kreeb,Y,MEexperimental,7/14/14,11:50,223471414-3,1,16,cat,ball,cat,familiar,familiar,R,cat,Y,rec,7/14/14,11:50,163471414-3,1,18,fill3,na,na,na,na,na,na,na,filler,7/14/14,11:50,na71414-3,1,17,monkey,toma,monkey,novel,familiar,R,monkey,Y,MEcontrol,7/14/14,11:50,90871414-3,1,19,dofa,dofa,train,novel,familiar,L,dofa,Y,MEexperimental,7/14/14,11:50,158071414-3,1,20,fep,car,fep,familiar,novel,R,fep,Y,MEexperimental,7/14/14,11:50,135171414-3,1,21,carrot,carrot,lamp,familiar,familiar,L,carrot,Y,rec,7/14/14,11:50,159871414-3,1,22,shovel,shovel,modi,familiar,novel,L,shovel,Y,MEcontrol,7/14/14,11:50,95471414-3,1,24,fill4,na,na,na,na,na,na,na,filler,7/14/14,11:50,na71414-3,1,23,hammer,sheep,hammer,familiar,familiar,R,hammer,Y,rec,7/14/14,11:50,138071414-3,1,25,wug,apple,wug,familiar,novel,R,wug,Y,MEexperimental,7/14/14,11:50,112771414-3,1,26,shoe,shoe,kreeb,familiar,novel,L,shoe,Y,MEcontrol,7/14/14,11:50,682471414-3,1,27,horse,horse,clock,familiar,familiar,L,horse,Y,rec,7/14/14,11:50,183771414-3,1,28,bottle,bird,bottle,familiar,familiar,R,bottle,Y,rec,7/14/14,11:50,215371414-4,1,1,dog,dog,book,familiar,familiar,L,dog,Y,rec,7/14/14,12:06,147671414-4,1,2,cookie,cookie,baby,familiar,familiar,L,cookie,Y,rec,7/14/14,12:06,126671414-4,1,3,car,fep,car,novel,familiar,R,car,Y,MEcontrol,7/14/14,12:06,125171414-4,1,4,dax,dax,cup,novel,familiar,L,dax,Y,MEexperimental,7/14/14,12:06,166871414-4,1,5,frog,pifo,frog,novel,familiar,R,frog,Y,MEcontrol,7/14/14,12:06,159871414-4,1,6,fill1,na,na,na,na,na,na,na,filler,7/14/14,12:06,na71414-4,1,7,lion,table,lion,familiar,familiar,R,lion,Y,rec,7/14/14,12:06,170371414-4,1,8,modi,modi,shovel,novel,familiar,L,modi,Y,MEexperimental,7/14/14,12:06,223271414-4,1,9,apple,wug,apple,novel,familiar,R,apple,Y,MEcontrol,7/14/14,12:06,136371414-4,1,10,train,train,dofa,familiar,novel,L,train,Y,MEcontrol,7/14/14,12:06,134271414-4,1,11,toma,monkey,toma,familiar,novel,R,toma,Y,MEexperimental,7/14/14,12:06,236071414-4,1,12,fill2,na,na,na,na,na,na,na,filler,7/14/14,12:06,na71414-4,1,13,pifo,frog,pifo,familiar,novel,R,pifo,Y,MEexperimental,7/14/14,12:06,188971414-4,1,14,cup,cup,dax,familiar,novel,L,cup,Y,MEcontrol,7/14/14,12:06,140071414-4,1,15,kreeb,kreeb,shoe,novel,familiar,L,kreeb,Y,MEexperimental,7/14/14,12:06,222171414-4,1,16,cat,ball,cat,familiar,familiar,R,cat,Y,rec,7/14/14,12:06,174671414-4,1,17,monkey,toma,monkey,novel,familiar,R,monkey,Y,MEcontrol,7/14/14,12:06,143271414-4,1,18,fill3,na,na,na,na,na,na,na,filler,7/14/14,12:06,na71414-4,1,19,dofa,dofa,train,novel,familiar,L,dofa,Y,MEexperimental,7/14/14,12:06,358171414-4,1,20,fep,car,fep,familiar,novel,R,fep,Y,MEexperimental,7/14/14,12:06,228971414-4,1,21,carrot,carrot,lamp,familiar,familiar,L,carrot,Y,rec,7/14/14,12:06,114271414-4,1,22,shovel,shovel,modi,familiar,novel,L,shovel,Y,MEcontrol,7/14/14,12:06,222771414-4,1,24,fill4,na,na,na,na,na,na,na,filler,7/14/14,12:06,na71414-4,1,23,hammer,sheep,hammer,familiar,familiar,R,hammer,Y,rec,7/14/14,12:06,126571414-4,1,25,wug,apple,wug,familiar,novel,R,wug,Y,MEexperimental,7/14/14,12:06,282771414-4,1,26,shoe,shoe,kreeb,familiar,novel,L,shoe,Y,MEcontrol,7/14/14,12:06,138271414-4,1,27,horse,horse,clock,familiar,familiar,L,horse,Y,rec,7/14/14,12:06,123071414-4,1,28,bottle,bird,bottle,familiar,familiar,R,bottle,Y,rec,7/14/14,12:06,194071414-5,1,1,dog,dog,book,familiar,familiar,L,dog,Y,rec,7/14/14,12:20,166271414-5,1,2,cookie,cookie,baby,familiar,familiar,L,cookie,Y,rec,7/14/14,12:20,107271414-5,1,3,car,fep,car,novel,familiar,R,car,Y,MEcontrol,7/14/14,12:20,118671414-5,1,4,dax,dax,cup,novel,familiar,L,dax,Y,MEexperimental,7/14/14,12:20,791971414-5,1,5,frog,pifo,frog,novel,familiar,R,frog,Y,MEcontrol,7/14/14,12:20,151571414-5,1,6,fill1,na,na,na,na,na,na,na,filler,7/14/14,12:20,na71414-5,1,7,lion,table,lion,familiar,familiar,R,lion,Y,rec,7/14/14,12:20,138771414-5,1,8,modi,modi,shovel,novel,familiar,L,modi,Y,MEexperimental,7/14/14,12:20,470771414-5,1,9,apple,wug,apple,novel,familiar,R,apple,Y,MEcontrol,7/14/14,12:20,128271414-5,1,10,train,train,dofa,familiar,novel,L,train,Y,MEcontrol,7/14/14,12:20,141071414-5,1,11,toma,monkey,toma,familiar,novel,R,toma,Y,MEexperimental,7/14/14,12:20,353471414-5,1,12,fill2,na,na,na,na,na,na,na,filler,7/14/14,12:20,na71414-5,1,13,pifo,frog,pifo,familiar,novel,R,pifo,Y,MEexperimental,7/14/14,12:20,483671414-5,1,14,cup,cup,dax,familiar,novel,L,cup,Y,MEcontrol,7/14/14,12:20,88371414-5,1,15,kreeb,kreeb,shoe,novel,familiar,L,kreeb,Y,MEexperimental,7/14/14,12:20,186271414-5,1,16,cat,ball,cat,familiar,familiar,R,cat,Y,rec,7/14/14,12:20,185571414-5,1,17,monkey,toma,monkey,novel,familiar,R,monkey,Y,MEcontrol,7/14/14,12:20,137371414-5,1,18,fill3,na,na,na,na,na,na,na,filler,7/14/14,12:20,na71414-5,1,19,dofa,dofa,train,novel,familiar,L,dofa,Y,MEexperimental,7/14/14,12:20,194171414-5,1,20,fep,car,fep,familiar,novel,R,fep,Y,MEexperimental,7/14/14,12:20,234071414-5,1,21,carrot,carrot,lamp,familiar,familiar,L,carrot,Y,rec,7/14/14,12:20,140771414-5,1,22,shovel,shovel,modi,familiar,novel,L,shovel,Y,MEcontrol,7/14/14,12:20,170371414-5,1,24,fill4,na,na,na,na,na,na,na,filler,7/14/14,12:20,na71414-5,1,23,hammer,sheep,hammer,familiar,familiar,R,hammer,Y,rec,7/14/14,12:20,151371414-5,1,25,wug,apple,wug,familiar,novel,R,wug,Y,MEexperimental,7/14/14,12:20,210271414-5,1,26,shoe,shoe,kreeb,familiar,novel,L,shoe,Y,MEcontrol,7/14/14,12:20,181171414-5,1,27,horse,horse,clock,familiar,familiar,L,horse,Y,rec,7/14/14,12:20,85371414-5,1,28,bottle,bird,bottle,familiar,familiar,R,bottle,Y,rec,7/14/14,12:20,148771414-6,1,1,dog,dog,book,familiar,familiar,L,dog,Y,rec,7/14/14,12:43,257571414-6,1,2,cookie,cookie,baby,familiar,familiar,L,cookie,Y,rec,7/14/14,12:43,145371414-6,1,3,car,fep,car,novel,familiar,R,car,Y,MEcontrol,7/14/14,12:43,143871414-6,1,4,dax,dax,cup,novel,familiar,R,cup,N,MEexperimental,7/14/14,12:43,1015271414-6,1,5,frog,pifo,frog,novel,familiar,R,frog,Y,MEcontrol,7/14/14,12:43,123671414-6,1,6,fill1,na,na,na,na,na,na,na,filler,7/14/14,12:43,na71414-6,1,7,lion,table,lion,familiar,familiar,R,lion,Y,rec,7/14/14,12:43,467271414-6,1,8,modi,modi,shovel,novel,familiar,L,modi,Y,MEexperimental,7/14/14,12:43,260571414-6,1,9,apple,wug,apple,novel,familiar,R,apple,Y,MEcontrol,7/14/14,12:43,117471414-6,1,10,train,train,dofa,familiar,novel,L,train,Y,MEcontrol,7/14/14,12:43,132971414-6,1,11,toma,monkey,toma,familiar,novel,R,toma,Y,MEexperimental,7/14/14,12:43,323471414-6,1,12,fill2,na,na,na,na,na,na,na,filler,7/14/14,12:43,na71414-6,1,13,pifo,frog,pifo,familiar,novel,R,pifo,Y,MEexperimental,7/14/14,12:43,282871414-6,1,14,cup,cup,dax,familiar,novel,L,cup,Y,MEcontrol,7/14/14,12:43,172071414-6,1,15,kreeb,kreeb,shoe,novel,familiar,R,shoe,N,MEexperimental,7/14/14,12:43,39871414-6,1,16,cat,ball,cat,familiar,familiar,R,cat,Y,rec,7/14/14,12:43,207171414-6,1,17,monkey,toma,monkey,novel,familiar,R,monkey,Y,MEcontrol,7/14/14,12:43,382571414-6,1,18,fill3,na,na,na,na,na,na,na,filler,7/14/14,12:43,na71414-6,1,19,dofa,dofa,train,novel,familiar,L,dofa,Y,MEexperimental,7/14/14,12:43,3003071414-6,1,20,fep,car,fep,familiar,novel,R,fep,Y,MEexperimental,7/14/14,12:43,398071414-6,1,21,carrot,carrot,lamp,familiar,familiar,L,carrot,Y,rec,7/14/14,12:43,136771414-6,1,22,shovel,shovel,modi,familiar,novel,L,shovel,Y,MEcontrol,7/14/14,12:43,191871414-6,1,23,hammer,sheep,hammer,familiar,familiar,L,sheep,N,rec,7/14/14,12:43,258071414-6,1,24,fill4,na,na,na,na,na,na,na,filler,7/14/14,12:43,na71414-6,1,25,wug,apple,wug,familiar,novel,R,wug,Y,MEexperimental,7/14/14,12:43,356171414-6,1,26,shoe,shoe,kreeb,familiar,novel,L,shoe,Y,MEcontrol,7/14/14,12:43,146471414-6,1,27,horse,horse,clock,familiar,familiar,R,clock,N,rec,7/14/14,12:43,935071414-6,1,28,bottle,bird,bottle,familiar,familiar,R,bottle,Y,rec,7/14/14,12:43,1517071414-7,1,1,dog,dog,book,familiar,familiar,L,dog,Y,rec,7/14/14,12:54,450971414-7,1,2,cookie,cookie,baby,familiar,familiar,L,cookie,Y,rec,7/14/14,12:54,146071414-7,1,3,car,fep,car,novel,familiar,R,car,Y,MEcontrol,7/14/14,12:54,116171414-7,1,4,dax,dax,cup,novel,familiar,L,dax,Y,MEexperimental,7/14/14,12:54,168171414-7,1,5,frog,pifo,frog,novel,familiar,R,frog,Y,MEcontrol,7/14/14,12:54,105971414-7,1,6,fill1,na,na,na,na,na,na,na,filler,7/14/14,12:54,na71414-7,1,7,lion,table,lion,familiar,familiar,R,lion,Y,rec,7/14/14,12:54,163071414-7,1,8,modi,modi,shovel,novel,familiar,L,modi,Y,MEexperimental,7/14/14,12:54,163371414-7,1,9,apple,wug,apple,novel,familiar,R,apple,Y,MEcontrol,7/14/14,12:54,130171414-7,1,10,train,train,dofa,familiar,novel,L,train,Y,MEcontrol,7/14/14,12:54,126571414-7,1,11,toma,monkey,toma,familiar,novel,R,toma,Y,MEexperimental,7/14/14,12:54,278571414-7,1,12,fill2,na,na,na,na,na,na,na,filler,7/14/14,12:54,na71414-7,1,13,pifo,frog,pifo,familiar,novel,R,pifo,Y,MEexperimental,7/14/14,12:54,133771414-7,1,14,cup,cup,dax,familiar,novel,L,cup,Y,MEcontrol,7/14/14,12:54,146871414-7,1,15,kreeb,kreeb,shoe,novel,familiar,L,kreeb,Y,MEexperimental,7/14/14,12:54,183771414-7,1,16,cat,ball,cat,familiar,familiar,R,cat,Y,rec,7/14/14,12:54,113671414-7,1,17,monkey,toma,monkey,novel,familiar,R,monkey,Y,MEcontrol,7/14/14,12:54,119271414-7,1,18,fill3,na,na,na,na,na,na,na,filler,7/14/14,12:54,na71414-7,1,19,dofa,dofa,train,novel,familiar,L,dofa,Y,MEexperimental,7/14/14,12:54,248771414-7,1,20,fep,car,fep,familiar,novel,R,fep,Y,MEexperimental,7/14/14,12:54,391971414-7,1,21,carrot,carrot,lamp,familiar,familiar,L,carrot,Y,rec,7/14/14,12:54,161471414-7,1,22,shovel,shovel,modi,familiar,novel,L,shovel,Y,MEcontrol,7/14/14,12:54,154071414-7,1,23,hammer,sheep,hammer,familiar,familiar,R,hammer,Y,rec,7/14/14,12:54,660971414-7,1,24,fill4,na,na,na,na,na,na,na,filler,7/14/14,12:54,na71414-7,1,25,wug,apple,wug,familiar,novel,R,wug,Y,MEexperimental,7/14/14,12:54,150971414-7,1,26,shoe,shoe,kreeb,familiar,novel,L,shoe,Y,MEcontrol,7/14/14,12:54,155971414-7,1,27,horse,horse,clock,familiar,familiar,L,horse,Y,rec,7/14/14,12:54,116371414-7,1,28,bottle,bird,bottle,familiar,familiar,R,bottle,Y,rec,7/14/14,12:54,143771414-8,1,1,dog,dog,book,familiar,familiar,L,dog,Y,rec,7/14/14,13:20,186471414-8,1,2,cookie,cookie,baby,familiar,familiar,L,cookie,Y,rec,7/14/14,13:20,109271414-8,1,3,car,fep,car,novel,familiar,R,car,Y,MEcontrol,7/14/14,13:20,115671414-8,1,4,dax,dax,cup,novel,familiar,L,dax,Y,MEexperimental,7/14/14,13:20,1442771414-8,1,5,frog,pifo,frog,novel,familiar,R,frog,Y,MEcontrol,7/14/14,13:20,143371414-8,1,6,fill1,na,na,na,na,na,na,na,filler,7/14/14,13:20,na71414-8,1,7,lion,table,lion,familiar,familiar,R,lion,Y,rec,7/14/14,13:20,116471414-8,1,8,modi,modi,shovel,novel,familiar,L,modi,Y,MEexperimental,7/14/14,13:20,151971414-8,1,9,apple,wug,apple,novel,familiar,R,apple,Y,MEcontrol,7/14/14,13:20,122771414-8,1,10,train,train,dofa,familiar,novel,L,train,Y,MEcontrol,7/14/14,13:20,135671414-8,1,11,toma,monkey,toma,familiar,novel,R,toma,Y,MEexperimental,7/14/14,13:20,146471414-8,1,12,fill2,na,na,na,na,na,na,na,filler,7/14/14,13:20,na71414-8,1,13,pifo,frog,pifo,familiar,novel,R,pifo,Y,MEexperimental,7/14/14,13:20,142771414-8,1,14,cup,cup,dax,familiar,novel,L,cup,Y,MEcontrol,7/14/14,13:20,90071414-8,1,15,kreeb,kreeb,shoe,novel,familiar,L,kreeb,Y,MEexperimental,7/14/14,13:20,100271414-8,1,16,cat,ball,cat,familiar,familiar,R,cat,Y,rec,7/14/14,13:20,97971414-8,1,17,monkey,toma,monkey,novel,familiar,R,monkey,Y,MEcontrol,7/14/14,13:20,173571414-8,1,18,fill3,na,na,na,na,na,na,na,filler,7/14/14,13:20,na71414-8,1,19,dofa,dofa,train,novel,familiar,L,dofa,Y,MEexperimental,7/14/14,13:20,195671414-8,1,20,fep,car,fep,familiar,novel,R,fep,Y,MEexperimental,7/14/14,13:20,133471414-8,1,21,carrot,carrot,lamp,familiar,familiar,L,carrot,Y,rec,7/14/14,13:20,134971414-8,1,22,shovel,shovel,modi,familiar,novel,L,shovel,Y,MEcontrol,7/14/14,13:20,90671414-8,1,23,hammer,sheep,hammer,familiar,familiar,R,hammer,Y,rec,7/14/14,13:20,117271414-8,1,24,fill4,na,na,na,na,na,na,na,filler,7/14/14,13:20,na71414-8,1,25,wug,apple,wug,familiar,novel,R,wug,Y,MEexperimental,7/14/14,13:20,234871414-8,1,26,shoe,shoe,kreeb,familiar,novel,L,shoe,Y,MEcontrol,7/14/14,13:20,110571414-8,1,27,horse,horse,clock,familiar,familiar,L,horse,Y,rec,7/14/14,13:20,98071414-8,1,28,bottle,bird,bottle,familiar,familiar,R,bottle,Y,rec,7/14/14,13:20,105271414-9,1,1,dog,dog,book,familiar,familiar,L,dog,Y,rec,7/14/14,14:19,465171414-9,1,2,cookie,cookie,baby,familiar,familiar,L,cookie,Y,rec,7/14/14,14:19,168371414-9,1,3,car,fep,car,novel,familiar,R,car,Y,MEcontrol,7/14/14,14:19,130171414-9,1,4,dax,dax,cup,novel,familiar,L,dax,Y,MEexperimental,7/14/14,14:19,235971414-9,1,5,frog,pifo,frog,novel,familiar,R,frog,Y,MEcontrol,7/14/14,14:19,125871414-9,1,6,fill1,na,na,na,na,na,na,na,filler,7/14/14,14:19,na71414-9,1,7,lion,table,lion,familiar,familiar,R,lion,Y,rec,7/14/14,14:19,168671414-9,1,8,modi,modi,shovel,novel,familiar,R,shovel,N,MEexperimental,7/14/14,14:19,218271414-9,1,9,apple,wug,apple,novel,familiar,R,apple,Y,MEcontrol,7/14/14,14:19,122071414-9,1,10,train,train,dofa,familiar,novel,L,train,Y,MEcontrol,7/14/14,14:19,276071414-9,1,11,toma,monkey,toma,familiar,novel,L,monkey,N,MEexperimental,7/14/14,14:19,626771414-9,1,12,fill2,na,na,na,na,na,na,na,filler,7/14/14,14:19,na71414-9,1,13,pifo,frog,pifo,familiar,novel,R,pifo,Y,MEexperimental,7/14/14,14:19,210371414-9,1,14,cup,cup,dax,familiar,novel,L,cup,Y,MEcontrol,7/14/14,14:19,223671414-9,1,15,kreeb,kreeb,shoe,novel,familiar,L,kreeb,Y,MEexperimental,7/14/14,14:19,294171414-9,1,16,cat,ball,cat,familiar,familiar,R,cat,Y,rec,7/14/14,14:19,165971414-9,1,17,monkey,toma,monkey,novel,familiar,R,monkey,Y,MEcontrol,7/14/14,14:19,185471414-9,1,18,fill3,na,na,na,na,na,na,na,filler,7/14/14,14:19,na71414-9,1,19,dofa,dofa,train,novel,familiar,L,dofa,Y,MEexperimental,7/14/14,14:19,255571414-9,1,20,fep,car,fep,familiar,novel,R,fep,Y,MEexperimental,7/14/14,14:19,170871414-9,1,21,carrot,carrot,lamp,familiar,familiar,L,carrot,Y,rec,7/14/14,14:19,201471414-9,1,22,shovel,shovel,modi,familiar,novel,L,shovel,Y,MEcontrol,7/14/14,14:19,172171414-9,1,23,hammer,sheep,hammer,familiar,familiar,R,hammer,Y,rec,7/14/14,14:19,151071414-9,1,24,fill4,na,na,na,na,na,na,na,filler,7/14/14,14:19,na71414-9,1,25,wug,apple,wug,familiar,novel,R,wug,Y,MEexperimental,7/14/14,14:19,233771414-9,1,26,shoe,shoe,kreeb,familiar,novel,L,shoe,Y,MEcontrol,7/14/14,14:19,159371414-9,1,27,horse,horse,clock,familiar,familiar,L,horse,Y,rec,7/14/14,14:19,197571414-9,1,28,bottle,bird,bottle,familiar,familiar,R,bottle,Y,rec,7/14/14,14:19,148271514-1,1,1,dog,dog,book,familiar,familiar,L,dog,Y,rec,7/15/14,11:29,271271514-1,1,2,cookie,cookie,baby,familiar,familiar,L,cookie,Y,rec,7/15/14,11:29,124171514-1,1,3,car,fep,car,novel,familiar,R,car,Y,MEcontrol,7/15/14,11:29,122771514-1,1,4,dax,dax,cup,novel,familiar,L,dax,Y,MEexperimental,7/15/14,11:29,224971514-1,1,5,frog,pifo,frog,novel,familiar,R,frog,Y,MEcontrol,7/15/14,11:29,135271514-1,1,6,fill1,na,na,na,na,na,na,na,filler,7/15/14,11:29,na71514-1,1,7,lion,table,lion,familiar,familiar,R,lion,Y,rec,7/15/14,11:29,144771514-1,1,8,modi,modi,shovel,novel,familiar,L,modi,Y,MEexperimental,7/15/14,11:29,203971514-1,1,9,apple,wug,apple,novel,familiar,R,apple,Y,MEcontrol,7/15/14,11:29,143071514-1,1,10,train,train,dofa,familiar,novel,L,train,Y,MEcontrol,7/15/14,11:29,214871514-1,1,11,toma,monkey,toma,familiar,novel,R,toma,Y,MEexperimental,7/15/14,11:29,284371514-1,1,12,fill2,na,na,na,na,na,na,na,filler,7/15/14,11:29,na71514-1,1,13,pifo,frog,pifo,familiar,novel,R,pifo,Y,MEexperimental,7/15/14,11:29,233371514-1,1,14,cup,cup,dax,familiar,novel,L,cup,Y,MEcontrol,7/15/14,11:29,161171514-1,1,15,kreeb,kreeb,shoe,novel,familiar,L,kreeb,Y,MEexperimental,7/15/14,11:29,240971514-1,1,16,cat,ball,cat,familiar,familiar,R,cat,Y,rec,7/15/14,11:29,320371514-1,1,17,monkey,toma,monkey,novel,familiar,R,monkey,Y,MEcontrol,7/15/14,11:29,114271514-1,1,18,fill3,na,na,na,na,na,na,na,filler,7/15/14,11:29,na71514-1,1,19,dofa,dofa,train,novel,familiar,L,dofa,Y,MEexperimental,7/15/14,11:29,173671514-1,1,20,fep,car,fep,familiar,novel,L,car,N,MEexperimental,7/15/14,11:29,182171514-1,1,21,carrot,carrot,lamp,familiar,familiar,L,carrot,Y,rec,7/15/14,11:29,135271514-1,1,22,shovel,shovel,modi,familiar,novel,L,shovel,Y,MEcontrol,7/15/14,11:29,138171514-1,1,23,hammer,sheep,hammer,familiar,familiar,R,hammer,Y,rec,7/15/14,11:29,111871514-1,1,24,fill4,na,na,na,na,na,na,na,filler,7/15/14,11:29,na71514-1,1,25,wug,apple,wug,familiar,novel,R,wug,Y,MEexperimental,7/15/14,11:29,257371514-1,1,26,shoe,shoe,kreeb,familiar,novel,L,shoe,Y,MEcontrol,7/15/14,11:29,144271514-1,1,27,horse,horse,clock,familiar,familiar,L,horse,Y,rec,7/15/14,11:29,127871514-1,1,28,bottle,bird,bottle,familiar,familiar,R,bottle,Y,rec,7/15/14,11:29,117171514-2,1,1,dog,dog,book,familiar,familiar,R,book,N,rec,7/15/14,11:45,1123871514-2,1,2,cookie,cookie,baby,familiar,familiar,L,cookie,Y,rec,7/15/14,11:45,197571514-2,1,3,car,fep,car,novel,familiar,R,car,Y,MEcontrol,7/15/14,11:45,115471514-2,1,4,dax,dax,cup,novel,familiar,L,dax,Y,MEexperimental,7/15/14,11:45,143071514-2,1,6,fill1,na,na,na,na,na,na,na,filler,7/15/14,11:45,na71514-2,1,5,frog,pifo,frog,novel,familiar,R,frog,Y,MEcontrol,7/15/14,11:45,106071514-2,1,7,lion,table,lion,familiar,familiar,R,lion,Y,rec,7/15/14,11:45,120771514-2,1,8,modi,modi,shovel,novel,familiar,L,modi,Y,MEexperimental,7/15/14,11:45,162871514-2,1,9,apple,wug,apple,novel,familiar,R,apple,Y,MEcontrol,7/15/14,11:45,125371514-2,1,10,train,train,dofa,familiar,novel,L,train,Y,MEcontrol,7/15/14,11:45,107171514-2,1,12,fill2,na,na,na,na,na,na,na,filler,7/15/14,11:45,na71514-2,1,11,toma,monkey,toma,familiar,novel,R,toma,Y,MEexperimental,7/15/14,11:45,169671514-2,1,13,pifo,frog,pifo,familiar,novel,R,pifo,Y,MEexperimental,7/15/14,11:45,115871514-2,1,14,cup,cup,dax,familiar,novel,L,cup,Y,MEcontrol,7/15/14,11:45,174171514-2,1,15,kreeb,kreeb,shoe,novel,familiar,L,kreeb,Y,MEexperimental,7/15/14,11:45,240571514-2,1,16,cat,ball,cat,familiar,familiar,R,cat,Y,rec,7/15/14,11:45,126771514-2,1,17,monkey,toma,monkey,novel,familiar,R,monkey,Y,MEcontrol,7/15/14,11:45,139471514-2,1,18,fill3,na,na,na,na,na,na,na,filler,7/15/14,11:45,na71514-2,1,19,dofa,dofa,train,novel,familiar,L,dofa,Y,MEexperimental,7/15/14,11:45,142971514-2,1,20,fep,car,fep,familiar,novel,R,fep,Y,MEexperimental,7/15/14,11:45,162571514-2,1,21,carrot,carrot,lamp,familiar,familiar,L,carrot,Y,rec,7/15/14,11:45,119471514-2,1,22,shovel,shovel,modi,familiar,novel,L,shovel,Y,MEcontrol,7/15/14,11:45,130171514-2,1,24,fill4,na,na,na,na,na,na,na,filler,7/15/14,11:45,na71514-2,1,23,hammer,sheep,hammer,familiar,familiar,R,hammer,Y,rec,7/15/14,11:45,108571514-2,1,25,wug,apple,wug,familiar,novel,R,wug,Y,MEexperimental,7/15/14,11:45,151271514-2,1,26,shoe,shoe,kreeb,familiar,novel,L,shoe,Y,MEcontrol,7/15/14,11:45,111971514-2,1,27,horse,horse,clock,familiar,familiar,L,horse,Y,rec,7/15/14,11:45,129071514-2,1,28,bottle,bird,bottle,familiar,familiar,R,bottle,Y,rec,7/15/14,11:45,117071514-3,2,1,bottle,bottle,bird,familiar,familiar,L,bottle,Y,rec,7/15/14,11:57,171871514-3,2,2,horse,clock,horse,familiar,familiar,R,horse,Y,rec,7/15/14,11:57,138771514-3,2,3,shoe,kreeb,shoe,novel,familiar,R,shoe,Y,MEcontrol,7/15/14,11:57,164671514-3,2,4,wug,wug,apple,novel,familiar,L,wug,Y,MEexperimental,7/15/14,11:57,391871514-3,2,5,fill4,na,na,na,na,na,na,na,filler,7/15/14,11:57,na71514-3,2,6,hammer,hammer,sheep,familiar,familiar,L,hammer,Y,rec,7/15/14,11:57,145071514-3,2,7,shovel,modi,shovel,novel,familiar,R,shovel,Y,MEcontrol,7/15/14,11:57,181971514-3,2,8,carrot,lamp,carrot,familiar,familiar,R,carrot,Y,rec,7/15/14,11:57,183171514-3,2,9,fep,fep,car,novel,familiar,L,fep,Y,MEexperimental,7/15/14,11:57,236871514-3,2,10,dofa,train,dofa,familiar,novel,R,dofa,Y,MEexperimental,7/15/14,11:57,187571514-3,2,11,fill3,na,na,na,na,na,na,na,filler,7/15/14,11:57,na71514-3,2,12,monkey,monkey,toma,familiar,novel,L,monkey,Y,MEcontrol,7/15/14,11:57,242471514-3,2,13,cat,cat,ball,familiar,familiar,L,cat,Y,rec,7/15/14,11:57,248071514-3,2,14,kreeb,shoe,kreeb,familiar,novel,R,kreeb,Y,MEexperimental,7/15/14,11:57,237071514-3,2,15,cup,dax,cup,novel,familiar,R,cup,Y,MEcontrol,7/15/14,11:57,648771514-3,2,17,fill2,na,na,na,na,na,na,na,filler,7/15/14,11:57,na71514-3,2,16,pifo,pifo,frog,novel,familiar,L,pifo,Y,MEexperimental,7/15/14,11:57,144371514-3,2,18,toma,toma,monkey,novel,familiar,L,toma,Y,MEexperimental,7/15/14,11:57,233371514-3,2,19,train,dofa,train,novel,familiar,R,train,Y,MEcontrol,7/15/14,11:57,202171514-3,2,20,apple,apple,wug,familiar,novel,L,apple,Y,MEcontrol,7/15/14,11:57,806771514-3,2,21,modi,shovel,modi,familiar,novel,R,modi,Y,MEexperimental,7/15/14,11:57,338771514-3,2,23,fill1,na,na,na,na,na,na,na,filler,7/15/14,11:57,na71514-3,2,22,lion,lion,table,familiar,familiar,L,lion,Y,rec,7/15/14,11:57,156271514-4,1,1,dog,dog,book,familiar,familiar,L,dog,Y,rec,7/15/14,12:06,48571514-4,1,2,cookie,cookie,baby,familiar,familiar,R,baby,N,rec,7/15/14,12:06,41071514-4,1,3,car,fep,car,novel,familiar,R,car,Y,MEcontrol,7/15/14,12:06,157771514-4,1,4,dax,dax,cup,novel,familiar,R,cup,N,MEexperimental,7/15/14,12:06,359271514-4,1,5,frog,pifo,frog,novel,familiar,R,frog,Y,MEcontrol,7/15/14,12:06,99871514-4,1,6,fill1,na,na,na,na,na,na,na,filler,7/15/14,12:06,na71514-4,1,7,lion,table,lion,familiar,familiar,R,lion,Y,rec,7/15/14,12:06,121371514-4,1,8,modi,modi,shovel,novel,familiar,R,shovel,N,MEexperimental,7/15/14,12:06,284371514-4,1,9,apple,wug,apple,novel,familiar,R,apple,Y,MEcontrol,7/15/14,12:06,164871514-4,1,10,train,train,dofa,familiar,novel,L,train,Y,MEcontrol,7/15/14,12:06,191771514-4,1,11,toma,monkey,toma,familiar,novel,L,monkey,N,MEexperimental,7/15/14,12:06,256971514-4,1,12,fill2,na,na,na,na,na,na,na,filler,7/15/14,12:06,na71514-4,1,13,pifo,frog,pifo,familiar,novel,R,pifo,Y,MEexperimental,7/15/14,12:06,370071514-4,1,14,cup,cup,dax,familiar,novel,L,cup,Y,MEcontrol,7/15/14,12:06,221171514-4,1,15,kreeb,kreeb,shoe,novel,familiar,L,kreeb,Y,MEexperimental,7/15/14,12:06,524871514-4,1,16,cat,ball,cat,familiar,familiar,R,cat,Y,rec,7/15/14,12:06,182871514-4,1,17,monkey,toma,monkey,novel,familiar,R,monkey,Y,MEcontrol,7/15/14,12:06,178871514-4,1,18,fill3,na,na,na,na,na,na,na,filler,7/15/14,12:06,na71514-4,1,19,dofa,dofa,train,novel,familiar,R,train,N,MEexperimental,7/15/14,12:06,234171514-4,1,20,fep,car,fep,familiar,novel,R,fep,Y,MEexperimental,7/15/14,12:06,305371514-4,1,21,carrot,carrot,lamp,familiar,familiar,L,carrot,Y,rec,7/15/14,12:06,149871514-4,1,22,shovel,shovel,modi,familiar,novel,L,shovel,Y,MEcontrol,7/15/14,12:06,264371514-4,1,23,hammer,sheep,hammer,familiar,familiar,L,sheep,N,rec,7/15/14,12:06,207871514-4,1,24,fill4,na,na,na,na,na,na,na,filler,7/15/14,12:06,na71514-5,1,1,dog,dog,book,familiar,familiar,R,book,N,rec,7/15/14,12:19,296371514-5,1,2,cookie,cookie,baby,familiar,familiar,R,baby,N,rec,7/15/14,12:19,967771514-5,1,3,car,fep,car,novel,familiar,R,car,Y,MEcontrol,7/15/14,12:19,836371514-5,1,4,dax,dax,cup,novel,familiar,L,dax,Y,MEexperimental,7/15/14,12:19,131171514-5,1,5,frog,pifo,frog,novel,familiar,L,pifo,N,MEcontrol,7/15/14,12:19,255471514-5,1,6,fill1,na,na,na,na,na,na,na,filler,7/15/14,12:19,na71514-5,1,7,lion,table,lion,familiar,familiar,L,table,N,rec,7/15/14,12:19,844971514-5,1,8,modi,modi,shovel,novel,familiar,R,shovel,N,MEexperimental,7/15/14,12:19,693571514-5,1,9,apple,wug,apple,novel,familiar,L,wug,N,MEcontrol,7/15/14,12:19,77971514-5,1,10,train,train,dofa,familiar,novel,R,dofa,N,MEcontrol,7/15/14,12:19,1453971514-5,1,12,fill2,na,na,na,na,na,na,na,filler,7/15/14,12:19,na71514-5,1,11,toma,monkey,toma,familiar,novel,L,monkey,N,MEexperimental,7/15/14,12:19,173671514-6,1,1,dog,dog,book,familiar,familiar,L,dog,Y,rec,7/15/14,12:33,146871514-6,1,2,cookie,cookie,baby,familiar,familiar,L,cookie,Y,rec,7/15/14,12:33,143971514-6,1,3,car,fep,car,novel,familiar,R,car,Y,MEcontrol,7/15/14,12:33,97371514-6,1,4,dax,dax,cup,novel,familiar,L,dax,Y,MEexperimental,7/15/14,12:33,174771514-6,1,5,frog,pifo,frog,novel,familiar,R,frog,Y,MEcontrol,7/15/14,12:33,129271514-6,1,6,fill1,na,na,na,na,na,na,na,filler,7/15/14,12:33,na71514-6,1,7,lion,table,lion,familiar,familiar,R,lion,Y,rec,7/15/14,12:33,137571514-6,1,8,modi,modi,shovel,novel,familiar,R,shovel,N,MEexperimental,7/15/14,12:33,136371514-6,1,9,apple,wug,apple,novel,familiar,R,apple,Y,MEcontrol,7/15/14,12:33,102871514-6,1,10,train,train,dofa,familiar,novel,L,train,Y,MEcontrol,7/15/14,12:33,153171514-6,1,11,toma,monkey,toma,familiar,novel,R,toma,Y,MEexperimental,7/15/14,12:33,196071514-6,1,12,fill2,na,na,na,na,na,na,na,filler,7/15/14,12:33,na71514-6,1,13,pifo,frog,pifo,familiar,novel,R,pifo,Y,MEexperimental,7/15/14,12:33,121971514-6,1,14,cup,cup,dax,familiar,novel,L,cup,Y,MEcontrol,7/15/14,12:33,709371514-6,1,15,kreeb,kreeb,shoe,novel,familiar,L,kreeb,Y,MEexperimental,7/15/14,12:33,107971514-6,1,16,cat,ball,cat,familiar,familiar,R,cat,Y,rec,7/15/14,12:33,113071514-6,1,17,monkey,toma,monkey,novel,familiar,R,monkey,Y,MEcontrol,7/15/14,12:33,113371514-6,1,18,fill3,na,na,na,na,na,na,na,filler,7/15/14,12:33,na71514-6,1,19,dofa,dofa,train,novel,familiar,R,train,N,MEexperimental,7/15/14,12:33,141471514-6,1,20,fep,car,fep,familiar,novel,R,fep,Y,MEexperimental,7/15/14,12:33,133671514-6,1,21,carrot,carrot,lamp,familiar,familiar,L,carrot,Y,rec,7/15/14,12:33,756371514-6,1,22,shovel,shovel,modi,familiar,novel,L,shovel,Y,MEcontrol,7/15/14,12:33,83771514-6,1,23,hammer,sheep,hammer,familiar,familiar,R,hammer,Y,rec,7/15/14,12:33,194971514-6,1,24,fill4,na,na,na,na,na,na,na,filler,7/15/14,12:33,na71514-6,1,25,wug,apple,wug,familiar,novel,L,apple,N,MEexperimental,7/15/14,12:33,470571514-6,1,26,shoe,shoe,kreeb,familiar,novel,L,shoe,Y,MEcontrol,7/15/14,12:33,241671514-6,1,27,horse,horse,clock,familiar,familiar,L,horse,Y,rec,7/15/14,12:33,118371514-6,1,28,bottle,bird,bottle,familiar,familiar,L,bird,N,rec,7/15/14,12:33,49071514-7,2,1,bottle,bottle,bird,familiar,familiar,L,bottle,Y,rec,7/15/14,12:43,1609171514-7,2,2,horse,clock,horse,familiar,familiar,R,horse,Y,rec,7/15/14,12:43,975771514-7,2,3,shoe,kreeb,shoe,novel,familiar,R,shoe,Y,MEcontrol,7/15/14,12:43,300071514-7,2,5,fill4,na,na,na,na,na,na,na,filler,7/15/14,12:43,na71514-7,2,4,wug,wug,apple,novel,familiar,R,apple,N,MEexperimental,7/15/14,12:43,266971514-7,2,6,hammer,hammer,sheep,familiar,familiar,R,sheep,N,rec,7/15/14,12:43,218571514-7,2,7,shovel,modi,shovel,novel,familiar,R,shovel,Y,MEcontrol,7/15/14,12:43,175371514-7,2,8,carrot,lamp,carrot,familiar,familiar,R,carrot,Y,rec,7/15/14,12:43,143571514-7,2,9,fep,fep,car,novel,familiar,R,car,N,MEexperimental,7/15/14,12:43,80071514-7,2,10,dofa,train,dofa,familiar,novel,R,dofa,Y,MEexperimental,7/15/14,12:43,184471514-7,2,11,fill3,na,na,na,na,na,na,na,filler,7/15/14,12:43,na71514-7,2,12,monkey,monkey,toma,familiar,novel,R,toma,N,MEcontrol,7/15/14,12:43,169271514-7,2,13,cat,cat,ball,familiar,familiar,L,cat,Y,rec,7/15/14,12:43,92171514-7,2,14,kreeb,shoe,kreeb,familiar,novel,R,kreeb,Y,MEexperimental,7/15/14,12:43,146971514-7,2,15,cup,dax,cup,novel,familiar,R,cup,Y,MEcontrol,7/15/14,12:43,110671514-7,2,16,pifo,pifo,frog,novel,familiar,R,frog,N,MEexperimental,7/15/14,12:43,154671514-7,2,17,fill2,na,na,na,na,na,na,na,filler,7/15/14,12:43,na71514-7,2,18,toma,toma,monkey,novel,familiar,R,monkey,N,MEexperimental,7/15/14,12:43,316271514-7,2,19,train,dofa,train,novel,familiar,R,train,Y,MEcontrol,7/15/14,12:43,868971514-7,2,20,apple,apple,wug,familiar,novel,L,apple,Y,MEcontrol,7/15/14,12:43,371571514-7,2,21,modi,shovel,modi,familiar,novel,R,modi,Y,MEexperimental,7/15/14,12:43,266071514-7,2,22,lion,lion,table,familiar,familiar,R,table,N,rec,7/15/14,12:43,179371514-7,2,23,fill1,na,na,na,na,na,na,na,filler,7/15/14,12:43,na71514-7,2,24,frog,frog,pifo,familiar,novel,R,pifo,N,MEcontrol,7/15/14,12:43,123471514-7,2,25,dax,cup,dax,familiar,novel,R,dax,Y,MEexperimental,7/15/14,12:43,725671514-7,2,26,car,car,fep,familiar,novel,R,fep,N,MEcontrol,7/15/14,12:43,658871514-7,2,27,cookie,baby,cookie,familiar,familiar,R,cookie,Y,rec,7/15/14,12:43,1789871514-7,2,28,dog,book,dog,familiar,familiar,R,dog,Y,rec,7/15/14,12:43,784571514-8,2,1,bottle,bottle,bird,familiar,familiar,L,bottle,Y,rec,7/15/14,13:12,250171514-8,2,2,horse,clock,horse,familiar,familiar,R,horse,Y,rec,7/15/14,13:12,124771514-8,2,3,shoe,kreeb,shoe,novel,familiar,R,shoe,Y,MEcontrol,7/15/14,13:12,108971514-8,2,4,wug,wug,apple,novel,familiar,L,wug,Y,MEexperimental,7/15/14,13:12,183471514-8,2,5,fill4,na,na,na,na,na,na,na,filler,7/15/14,13:12,na71514-8,2,6,hammer,hammer,sheep,familiar,familiar,L,hammer,Y,rec,7/15/14,13:12,109871514-8,2,7,shovel,modi,shovel,novel,familiar,R,shovel,Y,MEcontrol,7/15/14,13:12,93871514-8,2,8,carrot,lamp,carrot,familiar,familiar,R,carrot,Y,rec,7/15/14,13:12,81071514-8,2,9,fep,fep,car,novel,familiar,L,fep,Y,MEexperimental,7/15/14,13:12,156971514-8,2,10,dofa,train,dofa,familiar,novel,R,dofa,Y,MEexperimental,7/15/14,13:12,183571514-8,2,11,fill3,na,na,na,na,na,na,na,filler,7/15/14,13:12,na71514-8,2,12,monkey,monkey,toma,familiar,novel,L,monkey,Y,MEcontrol,7/15/14,13:12,181771514-8,2,13,cat,cat,ball,familiar,familiar,L,cat,Y,rec,7/15/14,13:12,56471514-8,2,14,kreeb,shoe,kreeb,familiar,novel,R,kreeb,Y,MEexperimental,7/15/14,13:12,136871514-8,2,15,cup,dax,cup,novel,familiar,R,cup,Y,MEcontrol,7/15/14,13:12,73071514-8,2,16,pifo,pifo,frog,novel,familiar,L,pifo,Y,MEexperimental,7/15/14,13:12,144671514-8,2,17,fill2,na,na,na,na,na,na,na,filler,7/15/14,13:12,na71514-8,2,18,toma,toma,monkey,novel,familiar,L,toma,Y,MEexperimental,7/15/14,13:12,185971514-8,2,19,train,dofa,train,novel,familiar,R,train,Y,MEcontrol,7/15/14,13:12,95871514-8,2,20,apple,apple,wug,familiar,novel,L,apple,Y,MEcontrol,7/15/14,13:12,176571514-8,2,21,modi,shovel,modi,familiar,novel,R,modi,Y,MEexperimental,7/15/14,13:12,131271514-8,2,23,fill1,na,na,na,na,na,na,na,filler,7/15/14,13:12,na71514-8,2,22,lion,lion,table,familiar,familiar,L,lion,Y,rec,7/15/14,13:12,90871514-8,2,24,frog,frog,pifo,familiar,novel,L,frog,Y,MEcontrol,7/15/14,13:12,140271514-8,2,25,dax,cup,dax,familiar,novel,R,dax,Y,MEexperimental,7/15/14,13:12,185171514-8,2,26,car,car,fep,familiar,novel,L,car,Y,MEcontrol,7/15/14,13:12,235071514-8,2,27,cookie,baby,cookie,familiar,familiar,R,cookie,Y,rec,7/15/14,13:12,107271514-8,2,28,dog,book,dog,familiar,familiar,R,dog,Y,rec,7/15/14,13:12,73771514-9,2,1,bottle,bottle,bird,familiar,familiar,L,bottle,Y,rec,7/15/14,13:25,998371514-9,2,2,horse,clock,horse,familiar,familiar,R,horse,Y,rec,7/15/14,13:25,152071514-9,2,3,shoe,kreeb,shoe,novel,familiar,R,shoe,Y,MEcontrol,7/15/14,13:25,144271514-9,2,4,wug,wug,apple,novel,familiar,L,wug,Y,MEexperimental,7/15/14,13:25,432371514-9,2,5,fill4,na,na,na,na,na,na,na,filler,7/15/14,13:25,na71514-9,2,6,hammer,hammer,sheep,familiar,familiar,L,hammer,Y,rec,7/15/14,13:25,155271514-9,2,7,shovel,modi,shovel,novel,familiar,R,shovel,Y,MEcontrol,7/15/14,13:25,124471514-9,2,8,carrot,lamp,carrot,familiar,familiar,R,carrot,Y,rec,7/15/14,13:25,92071514-9,2,9,fep,fep,car,novel,familiar,R,car,N,MEexperimental,7/15/14,13:25,494971514-9,2,10,dofa,train,dofa,familiar,novel,L,train,N,MEexperimental,7/15/14,13:25,552171514-9,2,11,fill3,na,na,na,na,na,na,na,filler,7/15/14,13:25,na71514-9,2,12,monkey,monkey,toma,familiar,novel,L,monkey,Y,MEcontrol,7/15/14,13:25,90571514-9,2,13,cat,cat,ball,familiar,familiar,L,cat,Y,rec,7/15/14,13:25,133271514-9,2,14,kreeb,shoe,kreeb,familiar,novel,R,kreeb,Y,MEexperimental,7/15/14,13:25,322671514-9,2,15,cup,dax,cup,novel,familiar,R,cup,Y,MEcontrol,7/15/14,13:25,141771514-9,2,16,pifo,pifo,frog,novel,familiar,L,pifo,Y,MEexperimental,7/15/14,13:25,305571514-9,2,17,fill2,na,na,na,na,na,na,na,filler,7/15/14,13:25,na71514-9,2,18,toma,toma,monkey,novel,familiar,L,toma,Y,MEexperimental,7/15/14,13:25,295671514-9,2,19,train,dofa,train,novel,familiar,R,train,Y,MEcontrol,7/15/14,13:25,87671514-9,2,20,apple,apple,wug,familiar,novel,L,apple,Y,MEcontrol,7/15/14,13:25,165571514-9,2,21,modi,shovel,modi,familiar,novel,R,modi,Y,MEexperimental,7/15/14,13:25,192271514-9,2,23,fill1,na,na,na,na,na,na,na,filler,7/15/14,13:25,na71514-9,2,22,lion,lion,table,familiar,familiar,L,lion,Y,rec,7/15/14,13:25,116871514-9,2,24,frog,frog,pifo,familiar,novel,L,frog,Y,MEcontrol,7/15/14,13:25,753671514-9,2,25,dax,cup,dax,familiar,novel,R,dax,Y,MEexperimental,7/15/14,13:25,363371514-9,2,26,car,car,fep,familiar,novel,L,car,Y,MEcontrol,7/15/14,13:25,68971514-9,2,27,cookie,baby,cookie,familiar,familiar,R,cookie,Y,rec,7/15/14,13:25,121271514-9,2,28,dog,book,dog,familiar,familiar,R,dog,Y,rec,7/15/14,13:25,115871514-10,2,1,bottle,bottle,bird,familiar,familiar,L,bottle,Y,rec,7/15/14,14:08,191771514-10,2,2,horse,clock,horse,familiar,familiar,R,horse,Y,rec,7/15/14,14:08,175471514-10,2,3,shoe,kreeb,shoe,novel,familiar,R,shoe,Y,MEcontrol,7/15/14,14:08,163171514-10,2,4,wug,wug,apple,novel,familiar,L,wug,Y,MEexperimental,7/15/14,14:08,199971514-10,2,5,fill4,na,na,na,na,na,na,na,filler,7/15/14,14:08,na71514-10,2,6,hammer,hammer,sheep,familiar,familiar,L,hammer,Y,rec,7/15/14,14:08,124971514-10,2,7,shovel,modi,shovel,novel,familiar,R,shovel,Y,MEcontrol,7/15/14,14:08,162871514-10,2,8,carrot,lamp,carrot,familiar,familiar,R,carrot,Y,rec,7/15/14,14:08,223271514-10,2,9,fep,fep,car,novel,familiar,L,fep,Y,MEexperimental,7/15/14,14:08,202771514-10,2,10,dofa,train,dofa,familiar,novel,R,dofa,Y,MEexperimental,7/15/14,14:08,233871514-10,2,11,fill3,na,na,na,na,na,na,na,filler,7/15/14,14:08,na71514-10,2,12,monkey,monkey,toma,familiar,novel,L,monkey,Y,MEcontrol,7/15/14,14:08,202571514-10,2,13,cat,cat,ball,familiar,familiar,L,cat,Y,rec,7/15/14,14:08,174171514-10,2,14,kreeb,shoe,kreeb,familiar,novel,L,shoe,N,MEexperimental,7/15/14,14:08,178471514-10,2,15,cup,dax,cup,novel,familiar,R,cup,Y,MEcontrol,7/15/14,14:08,182271514-10,2,16,pifo,pifo,frog,novel,familiar,L,pifo,Y,MEexperimental,7/15/14,14:08,187871514-10,2,17,fill2,na,na,na,na,na,na,na,filler,7/15/14,14:08,na71514-10,2,18,toma,toma,monkey,novel,familiar,L,toma,Y,MEexperimental,7/15/14,14:08,206271514-10,2,19,train,dofa,train,novel,familiar,R,train,Y,MEcontrol,7/15/14,14:08,215171514-10,2,20,apple,apple,wug,familiar,novel,L,apple,Y,MEcontrol,7/15/14,14:08,152071514-10,2,21,modi,shovel,modi,familiar,novel,R,modi,Y,MEexperimental,7/15/14,14:08,212071514-10,2,22,lion,lion,table,familiar,familiar,L,lion,Y,rec,7/15/14,14:08,173671514-10,2,23,fill1,na,na,na,na,na,na,na,filler,7/15/14,14:08,na71514-10,2,24,frog,frog,pifo,familiar,novel,L,frog,Y,MEcontrol,7/15/14,14:08,219971514-10,2,25,dax,cup,dax,familiar,novel,R,dax,Y,MEexperimental,7/15/14,14:08,193171514-10,2,26,car,car,fep,familiar,novel,L,car,Y,MEcontrol,7/15/14,14:08,115471514-10,2,27,cookie,baby,cookie,familiar,familiar,R,cookie,Y,rec,7/15/14,14:08,152071514-10,2,28,dog,book,dog,familiar,familiar,R,dog,Y,rec,7/15/14,14:08,175671614-1,2,1,bottle,bottle,bird,familiar,familiar,L,bottle,Y,rec,7/16/14,12:38,258471614-1,2,2,horse,clock,horse,familiar,familiar,R,horse,Y,rec,7/16/14,12:38,131171614-1,2,3,shoe,kreeb,shoe,novel,familiar,R,shoe,Y,MEcontrol,7/16/14,12:38,196171614-1,2,4,wug,wug,apple,novel,familiar,R,apple,N,MEexperimental,7/16/14,12:38,1203471614-1,2,5,fill4,na,na,na,na,na,na,na,filler,7/16/14,12:38,na71614-1,2,6,hammer,hammer,sheep,familiar,familiar,L,hammer,Y,rec,7/16/14,12:38,133571614-1,2,7,shovel,modi,shovel,novel,familiar,R,shovel,Y,MEcontrol,7/16/14,12:38,144271614-1,2,8,carrot,lamp,carrot,familiar,familiar,R,carrot,Y,rec,7/16/14,12:38,317671614-1,2,9,fep,fep,car,novel,familiar,R,car,N,MEexperimental,7/16/14,12:38,1643971614-1,2,10,dofa,train,dofa,familiar,novel,R,dofa,Y,MEexperimental,7/16/14,12:38,361471614-1,2,11,fill3,na,na,na,na,na,na,na,filler,7/16/14,12:38,na71614-1,2,12,monkey,monkey,toma,familiar,novel,L,monkey,Y,MEcontrol,7/16/14,12:38,170071614-1,2,13,cat,cat,ball,familiar,familiar,L,cat,Y,rec,7/16/14,12:38,162771614-1,2,14,kreeb,shoe,kreeb,familiar,novel,R,kreeb,Y,MEexperimental,7/16/14,12:38,445471614-1,2,15,cup,dax,cup,novel,familiar,R,cup,Y,MEcontrol,7/16/14,12:38,186071614-1,2,16,pifo,pifo,frog,novel,familiar,L,pifo,Y,MEexperimental,7/16/14,12:38,349871614-1,2,17,fill2,na,na,na,na,na,na,na,filler,7/16/14,12:38,na71614-1,2,18,toma,toma,monkey,novel,familiar,L,toma,Y,MEexperimental,7/16/14,12:38,200671614-1,2,19,train,dofa,train,novel,familiar,R,train,Y,MEcontrol,7/16/14,12:38,267771614-1,2,20,apple,apple,wug,familiar,novel,L,apple,Y,MEcontrol,7/16/14,12:38,223271614-1,2,21,modi,shovel,modi,familiar,novel,R,modi,Y,MEexperimental,7/16/14,12:38,260571614-1,2,22,lion,lion,table,familiar,familiar,L,lion,Y,rec,7/16/14,12:38,151071614-1,2,23,fill1,na,na,na,na,na,na,na,filler,7/16/14,12:38,na71614-1,2,24,frog,frog,pifo,familiar,novel,L,frog,Y,MEcontrol,7/16/14,12:38,152071614-1,2,25,dax,cup,dax,familiar,novel,R,dax,Y,MEexperimental,7/16/14,12:38,172771614-1,2,26,car,car,fep,familiar,novel,L,car,Y,MEcontrol,7/16/14,12:38,159571614-1,2,27,cookie,baby,cookie,familiar,familiar,R,cookie,Y,rec,7/16/14,12:38,109271614-1,2,28,dog,book,dog,familiar,familiar,R,dog,Y,rec,7/16/14,12:38,122571614-2,2,1,bottle,bottle,bird,familiar,familiar,L,bottle,Y,rec,7/16/14,13:13,219971614-2,2,2,horse,clock,horse,familiar,familiar,R,horse,Y,rec,7/16/14,13:13,134071614-2,2,3,shoe,kreeb,shoe,novel,familiar,R,shoe,Y,MEcontrol,7/16/14,13:13,190771614-2,2,4,wug,wug,apple,novel,familiar,L,wug,Y,MEexperimental,7/16/14,13:13,333771614-2,2,5,fill4,na,na,na,na,na,na,na,filler,7/16/14,13:13,na71614-2,2,6,hammer,hammer,sheep,familiar,familiar,L,hammer,Y,rec,7/16/14,13:13,191371614-2,2,7,shovel,modi,shovel,novel,familiar,R,shovel,Y,MEcontrol,7/16/14,13:13,219171614-2,2,8,carrot,lamp,carrot,familiar,familiar,R,carrot,Y,rec,7/16/14,13:13,167771614-2,2,9,fep,fep,car,novel,familiar,L,fep,Y,MEexperimental,7/16/14,13:13,232371614-2,2,10,dofa,train,dofa,familiar,novel,R,dofa,Y,MEexperimental,7/16/14,13:13,299571614-2,2,11,fill3,na,na,na,na,na,na,na,filler,7/16/14,13:13,na71614-2,2,12,monkey,monkey,toma,familiar,novel,L,monkey,Y,MEcontrol,7/16/14,13:13,154871614-2,2,13,cat,cat,ball,familiar,familiar,L,cat,Y,rec,7/16/14,13:13,166871614-2,2,14,kreeb,shoe,kreeb,familiar,novel,R,kreeb,Y,MEexperimental,7/16/14,13:13,237271614-2,2,15,cup,dax,cup,novel,familiar,R,cup,Y,MEcontrol,7/16/14,13:13,148371614-2,2,16,pifo,pifo,frog,novel,familiar,L,pifo,Y,MEexperimental,7/16/14,13:13,228271614-2,2,17,fill2,na,na,na,na,na,na,na,filler,7/16/14,13:13,na71614-2,2,18,toma,toma,monkey,novel,familiar,L,toma,Y,MEexperimental,7/16/14,13:13,220671614-2,2,19,train,dofa,train,novel,familiar,R,train,Y,MEcontrol,7/16/14,13:13,160071614-2,2,20,apple,apple,wug,familiar,novel,L,apple,Y,MEcontrol,7/16/14,13:13,90271614-2,2,21,modi,shovel,modi,familiar,novel,R,modi,Y,MEexperimental,7/16/14,13:13,141871614-2,2,23,fill1,na,na,na,na,na,na,na,filler,7/16/14,13:13,na71614-2,2,22,lion,lion,table,familiar,familiar,L,lion,Y,rec,7/16/14,13:13,162071614-2,2,24,frog,frog,pifo,familiar,novel,L,frog,Y,MEcontrol,7/16/14,13:13,124171614-2,2,25,dax,cup,dax,familiar,novel,R,dax,Y,MEexperimental,7/16/14,13:13,132771614-2,2,26,car,car,fep,familiar,novel,L,car,Y,MEcontrol,7/16/14,13:13,170171614-2,2,27,cookie,baby,cookie,familiar,familiar,R,cookie,Y,rec,7/16/14,13:13,144171614-2,2,28,dog,book,dog,familiar,familiar,R,dog,Y,rec,7/16/14,13:13,113371614-3,2,1,bottle,bottle,bird,familiar,familiar,L,bottle,Y,rec,7/16/14,13:36,548171614-3,2,2,horse,clock,horse,familiar,familiar,R,horse,Y,rec,7/16/14,13:36,190271614-3,2,3,shoe,kreeb,shoe,novel,familiar,R,shoe,Y,MEcontrol,7/16/14,13:36,177871614-3,2,4,wug,wug,apple,novel,familiar,R,apple,N,MEexperimental,7/16/14,13:36,291171614-3,2,5,fill4,na,na,na,na,na,na,na,filler,7/16/14,13:36,na71614-3,2,6,hammer,hammer,sheep,familiar,familiar,L,hammer,Y,rec,7/16/14,13:36,148571614-3,2,7,shovel,modi,shovel,novel,familiar,R,shovel,Y,MEcontrol,7/16/14,13:36,199071614-3,2,8,carrot,lamp,carrot,familiar,familiar,R,carrot,Y,rec,7/16/14,13:36,230371614-3,2,9,fep,fep,car,novel,familiar,L,fep,Y,MEexperimental,7/16/14,13:36,1305771614-3,2,11,fill3,na,na,na,na,na,na,na,filler,7/16/14,13:36,na71614-3,2,10,dofa,train,dofa,familiar,novel,R,dofa,Y,MEexperimental,7/16/14,13:36,475571614-3,2,12,monkey,monkey,toma,familiar,novel,L,monkey,Y,MEcontrol,7/16/14,13:36,282171614-3,2,13,cat,cat,ball,familiar,familiar,L,cat,Y,rec,7/16/14,13:36,176771614-3,2,14,kreeb,shoe,kreeb,familiar,novel,R,kreeb,Y,MEexperimental,7/16/14,13:36,246171614-3,2,15,cup,dax,cup,novel,familiar,L,dax,N,MEcontrol,7/16/14,13:36,51571614-3,2,16,pifo,pifo,frog,novel,familiar,L,pifo,Y,MEexperimental,7/16/14,13:36,357971614-3,2,17,fill2,na,na,na,na,na,na,na,filler,7/16/14,13:36,na71614-3,2,18,toma,toma,monkey,novel,familiar,L,toma,Y,MEexperimental,7/16/14,13:36,197471614-3,2,19,train,dofa,train,novel,familiar,R,train,Y,MEcontrol,7/16/14,13:36,152171614-3,2,20,apple,apple,wug,familiar,novel,L,apple,Y,MEcontrol,7/16/14,13:36,210171614-3,2,21,modi,shovel,modi,familiar,novel,R,modi,Y,MEexperimental,7/16/14,13:36,382771614-3,2,22,lion,lion,table,familiar,familiar,L,lion,Y,rec,7/16/14,13:36,286171614-3,2,23,fill1,na,na,na,na,na,na,na,filler,7/16/14,13:36,na71614-3,2,24,frog,frog,pifo,familiar,novel,L,frog,Y,MEcontrol,7/16/14,13:36,319271614-3,2,25,dax,cup,dax,familiar,novel,R,dax,Y,MEexperimental,7/16/14,13:36,283071614-3,2,26,car,car,fep,familiar,novel,L,car,Y,MEcontrol,7/16/14,13:36,169071614-3,2,27,cookie,baby,cookie,familiar,familiar,R,cookie,Y,rec,7/16/14,13:36,248771614-3,2,28,dog,book,dog,familiar,familiar,R,dog,Y,rec,7/16/14,13:36,140371614-4,2,1,bottle,bottle,bird,familiar,familiar,L,bottle,Y,rec,7/16/14,13:53,102671614-4,2,2,horse,clock,horse,familiar,familiar,R,horse,Y,rec,7/16/14,13:53,124771614-4,2,3,shoe,kreeb,shoe,novel,familiar,R,shoe,Y,MEcontrol,7/16/14,13:53,133971614-4,2,4,wug,wug,apple,novel,familiar,L,wug,Y,MEexperimental,7/16/14,13:53,186371614-4,2,5,fill4,na,na,na,na,na,na,na,filler,7/16/14,13:53,na71614-4,2,6,hammer,hammer,sheep,familiar,familiar,L,hammer,Y,rec,7/16/14,13:53,169471614-4,2,7,shovel,modi,shovel,novel,familiar,R,shovel,Y,MEcontrol,7/16/14,13:53,182971614-4,2,8,carrot,lamp,carrot,familiar,familiar,R,carrot,Y,rec,7/16/14,13:53,116271614-4,2,9,fep,fep,car,novel,familiar,L,fep,Y,MEexperimental,7/16/14,13:53,162971614-4,2,10,dofa,train,dofa,familiar,novel,R,dofa,Y,MEexperimental,7/16/14,13:53,147971614-4,2,11,fill3,na,na,na,na,na,na,na,filler,7/16/14,13:53,na71614-4,2,12,monkey,monkey,toma,familiar,novel,L,monkey,Y,MEcontrol,7/16/14,13:53,232871614-4,2,13,cat,cat,ball,familiar,familiar,L,cat,Y,rec,7/16/14,13:53,74771614-4,2,14,kreeb,shoe,kreeb,familiar,novel,R,kreeb,Y,MEexperimental,7/16/14,13:53,214971614-4,2,15,cup,dax,cup,novel,familiar,R,cup,Y,MEcontrol,7/16/14,13:53,68871614-4,2,16,pifo,pifo,frog,novel,familiar,R,frog,N,MEexperimental,7/16/14,13:53,128371614-4,2,17,fill2,na,na,na,na,na,na,na,filler,7/16/14,13:53,na71614-4,2,18,toma,toma,monkey,novel,familiar,R,monkey,N,MEexperimental,7/16/14,13:53,174571614-4,2,19,train,dofa,train,novel,familiar,R,train,Y,MEcontrol,7/16/14,13:53,46571614-4,2,20,apple,apple,wug,familiar,novel,L,apple,Y,MEcontrol,7/16/14,13:53,195071614-4,2,21,modi,shovel,modi,familiar,novel,R,modi,Y,MEexperimental,7/16/14,13:53,134771614-4,2,22,lion,lion,table,familiar,familiar,L,lion,Y,rec,7/16/14,13:53,98471614-4,2,23,fill1,na,na,na,na,na,na,na,filler,7/16/14,13:53,na71614-4,2,24,frog,frog,pifo,familiar,novel,L,frog,Y,MEcontrol,7/16/14,13:53,99371614-4,2,25,dax,cup,dax,familiar,novel,R,dax,Y,MEexperimental,7/16/14,13:53,142071614-4,2,26,car,car,fep,familiar,novel,L,car,Y,MEcontrol,7/16/14,13:53,97671614-4,2,27,cookie,baby,cookie,familiar,familiar,R,cookie,Y,rec,7/16/14,13:53,114671614-4,2,28,dog,book,dog,familiar,familiar,R,dog,Y,rec,7/16/14,13:53,101871614-5,2,1,bottle,bottle,bird,familiar,familiar,L,bottle,Y,rec,7/16/14,13:59,161671614-5,2,2,horse,clock,horse,familiar,familiar,R,horse,Y,rec,7/16/14,13:59,130871614-5,2,3,shoe,kreeb,shoe,novel,familiar,R,shoe,Y,MEcontrol,7/16/14,13:59,113871614-5,2,5,fill4,na,na,na,na,na,na,na,filler,7/16/14,13:59,na71614-5,2,4,wug,wug,apple,novel,familiar,L,wug,Y,MEexperimental,7/16/14,13:59,342171614-5,2,6,hammer,hammer,sheep,familiar,familiar,L,hammer,Y,rec,7/16/14,13:59,147971614-5,2,7,shovel,modi,shovel,novel,familiar,R,shovel,Y,MEcontrol,7/16/14,13:59,165071614-5,2,8,carrot,lamp,carrot,familiar,familiar,L,lamp,N,rec,7/16/14,13:59,86971614-5,2,9,fep,fep,car,novel,familiar,L,fep,Y,MEexperimental,7/16/14,13:59,188971614-5,2,10,dofa,train,dofa,familiar,novel,R,dofa,Y,MEexperimental,7/16/14,13:59,246071614-5,2,11,fill3,na,na,na,na,na,na,na,filler,7/16/14,13:59,na71614-5,2,12,monkey,monkey,toma,familiar,novel,L,monkey,Y,MEcontrol,7/16/14,13:59,108871614-5,2,13,cat,cat,ball,familiar,familiar,L,cat,Y,rec,7/16/14,13:59,138971614-5,2,14,kreeb,shoe,kreeb,familiar,novel,R,kreeb,Y,MEexperimental,7/16/14,13:59,133971614-5,2,15,cup,dax,cup,novel,familiar,R,cup,Y,MEcontrol,7/16/14,13:59,141371614-5,2,17,fill2,na,na,na,na,na,na,na,filler,7/16/14,13:59,na71614-5,2,16,pifo,pifo,frog,novel,familiar,L,pifo,Y,MEexperimental,7/16/14,13:59,165971614-5,2,18,toma,toma,monkey,novel,familiar,L,toma,Y,MEexperimental,7/16/14,13:59,288071614-5,2,19,train,dofa,train,novel,familiar,R,train,Y,MEcontrol,7/16/14,13:59,93571614-5,2,20,apple,apple,wug,familiar,novel,L,apple,Y,MEcontrol,7/16/14,13:59,80771614-5,2,21,modi,shovel,modi,familiar,novel,R,modi,Y,MEexperimental,7/16/14,13:59,127771614-5,2,22,lion,lion,table,familiar,familiar,L,lion,Y,rec,7/16/14,13:59,110171614-5,2,23,fill1,na,na,na,na,na,na,na,filler,7/16/14,13:59,na71614-5,2,24,frog,frog,pifo,familiar,novel,L,frog,Y,MEcontrol,7/16/14,13:59,111071614-5,2,25,dax,cup,dax,familiar,novel,R,dax,Y,MEexperimental,7/16/14,13:59,113871614-5,2,26,car,car,fep,familiar,novel,L,car,Y,MEcontrol,7/16/14,13:59,61871614-5,2,27,cookie,baby,cookie,familiar,familiar,R,cookie,Y,rec,7/16/14,13:59,65871614-5,2,28,dog,book,dog,familiar,familiar,R,dog,Y,rec,7/16/14,13:59,155371614-6,2,1,bottle,bottle,bird,familiar,familiar,L,bottle,Y,rec,7/16/14,14:26,192071614-6,2,2,horse,clock,horse,familiar,familiar,R,horse,Y,rec,7/16/14,14:26,135271614-6,2,3,shoe,kreeb,shoe,novel,familiar,R,shoe,Y,MEcontrol,7/16/14,14:26,229671614-6,2,4,wug,wug,apple,novel,familiar,R,apple,N,MEexperimental,7/16/14,14:26,2333171614-6,2,5,fill4,na,na,na,na,na,na,na,filler,7/16/14,14:26,na71614-6,2,6,hammer,hammer,sheep,familiar,familiar,L,hammer,Y,rec,7/16/14,14:26,128171614-6,2,7,shovel,modi,shovel,novel,familiar,R,shovel,Y,MEcontrol,7/16/14,14:26,229371614-6,2,8,carrot,lamp,carrot,familiar,familiar,R,carrot,Y,rec,7/16/14,14:26,170771614-6,2,9,fep,fep,car,novel,familiar,L,fep,Y,MEexperimental,7/16/14,14:26,230471614-6,2,10,dofa,train,dofa,familiar,novel,R,dofa,Y,MEexperimental,7/16/14,14:26,692671614-6,2,11,fill3,na,na,na,na,na,na,na,filler,7/16/14,14:26,na71614-6,2,12,monkey,monkey,toma,familiar,novel,L,monkey,Y,MEcontrol,7/16/14,14:26,128171614-6,2,13,cat,cat,ball,familiar,familiar,L,cat,Y,rec,7/16/14,14:26,147771614-6,2,14,kreeb,shoe,kreeb,familiar,novel,R,kreeb,Y,MEexperimental,7/16/14,14:26,193071614-6,2,15,cup,dax,cup,novel,familiar,R,cup,Y,MEcontrol,7/16/14,14:26,175471614-6,2,16,pifo,pifo,frog,novel,familiar,L,pifo,Y,MEexperimental,7/16/14,14:26,239171614-6,2,17,fill2,na,na,na,na,na,na,na,filler,7/16/14,14:26,na71614-6,2,18,toma,toma,monkey,novel,familiar,L,toma,Y,MEexperimental,7/16/14,14:26,199271614-6,2,19,train,dofa,train,novel,familiar,R,train,Y,MEcontrol,7/16/14,14:26,125671614-6,2,20,apple,apple,wug,familiar,novel,L,apple,Y,MEcontrol,7/16/14,14:26,643671614-6,2,21,modi,shovel,modi,familiar,novel,R,modi,Y,MEexperimental,7/16/14,14:26,220271614-6,2,23,fill1,na,na,na,na,na,na,na,filler,7/16/14,14:26,na71614-6,2,22,lion,lion,table,familiar,familiar,L,lion,Y,rec,7/16/14,14:26,126971614-6,2,24,frog,frog,pifo,familiar,novel,L,frog,Y,MEcontrol,7/16/14,14:26,137471614-6,2,25,dax,cup,dax,familiar,novel,R,dax,Y,MEexperimental,7/16/14,14:26,269471614-6,2,26,car,car,fep,familiar,novel,L,car,Y,MEcontrol,7/16/14,14:26,114171614-6,2,27,cookie,baby,cookie,familiar,familiar,R,cookie,Y,rec,7/16/14,14:26,133371614-6,2,28,dog,book,dog,familiar,familiar,R,dog,Y,rec,7/16/14,14:26,163071614-7,2,1,bottle,bottle,bird,familiar,familiar,L,bottle,Y,rec,7/16/14,14:45,213871614-7,2,2,horse,clock,horse,familiar,familiar,R,horse,Y,rec,7/16/14,14:45,181971614-7,2,3,shoe,kreeb,shoe,novel,familiar,R,shoe,Y,MEcontrol,7/16/14,14:45,131771614-7,2,4,wug,wug,apple,novel,familiar,L,wug,Y,MEexperimental,7/16/14,14:45,295271614-7,2,5,fill4,na,na,na,na,na,na,na,filler,7/16/14,14:45,na71614-7,2,6,hammer,hammer,sheep,familiar,familiar,L,hammer,Y,rec,7/16/14,14:45,134671614-7,2,7,shovel,modi,shovel,novel,familiar,R,shovel,Y,MEcontrol,7/16/14,14:45,178671614-7,2,8,carrot,lamp,carrot,familiar,familiar,R,carrot,Y,rec,7/16/14,14:45,135771614-7,2,9,fep,fep,car,novel,familiar,L,fep,Y,MEexperimental,7/16/14,14:45,161471614-7,2,11,fill3,na,na,na,na,na,na,na,filler,7/16/14,14:45,na71614-7,2,10,dofa,train,dofa,familiar,novel,R,dofa,Y,MEexperimental,7/16/14,14:45,166671614-7,2,18,toma,toma,monkey,novel,familiar,L,toma,Y,MEexperimental,7/16/14,14:45,177971614-7,2,19,train,dofa,train,novel,familiar,R,train,Y,MEcontrol,7/16/14,14:45,128971614-7,2,20,apple,apple,wug,familiar,novel,L,apple,Y,MEcontrol,7/16/14,14:45,303271614-7,2,21,modi,shovel,modi,familiar,novel,R,modi,Y,MEexperimental,7/16/14,14:45,190771614-7,2,23,fill1,na,na,na,na,na,na,na,filler,7/16/14,14:45,na71614-7,2,22,lion,lion,table,familiar,familiar,L,lion,Y,rec,7/16/14,14:45,150671614-7,2,24,frog,frog,pifo,familiar,novel,L,frog,Y,MEcontrol,7/16/14,14:45,113571614-7,2,25,dax,cup,dax,familiar,novel,R,dax,Y,MEexperimental,7/16/14,14:45,132271614-7,2,26,car,car,fep,familiar,novel,L,car,Y,MEcontrol,7/16/14,14:45,153571614-7,2,27,cookie,baby,cookie,familiar,familiar,R,cookie,Y,rec,7/16/14,14:45,103971614-7,2,28,dog,book,dog,familiar,familiar,R,dog,Y,rec,7/16/14,14:45,136271614-8,2,1,bottle,bottle,bird,familiar,familiar,L,bottle,Y,rec,7/16/14,14:51,38071614-8,2,2,horse,clock,horse,familiar,familiar,R,horse,Y,rec,7/16/14,14:51,216371614-8,2,3,shoe,kreeb,shoe,novel,familiar,R,shoe,Y,MEcontrol,7/16/14,14:51,253571614-8,2,4,wug,wug,apple,novel,familiar,R,apple,N,MEexperimental,7/16/14,14:51,962371614-8,2,5,fill4,na,na,na,na,na,na,na,filler,7/16/14,14:51,na71614-8,2,6,hammer,hammer,sheep,familiar,familiar,L,hammer,Y,rec,7/16/14,14:51,298471614-8,2,7,shovel,modi,shovel,novel,familiar,R,shovel,Y,MEcontrol,7/16/14,14:51,228371614-8,2,8,carrot,lamp,carrot,familiar,familiar,R,carrot,Y,rec,7/16/14,14:51,169871614-8,2,9,fep,fep,car,novel,familiar,L,fep,Y,MEexperimental,7/16/14,14:51,171971614-8,2,10,dofa,train,dofa,familiar,novel,R,dofa,Y,MEexperimental,7/16/14,14:51,185171614-8,2,11,fill3,na,na,na,na,na,na,na,filler,7/16/14,14:51,na71614-8,2,12,monkey,monkey,toma,familiar,novel,L,monkey,Y,MEcontrol,7/16/14,14:51,142071614-8,2,13,cat,cat,ball,familiar,familiar,L,cat,Y,rec,7/16/14,14:51,162771614-8,2,14,kreeb,shoe,kreeb,familiar,novel,R,kreeb,Y,MEexperimental,7/16/14,14:51,201771614-8,2,15,cup,dax,cup,novel,familiar,R,cup,Y,MEcontrol,7/16/14,14:51,173871614-8,2,16,pifo,pifo,frog,novel,familiar,L,pifo,Y,MEexperimental,7/16/14,14:51,181971614-8,2,17,fill2,na,na,na,na,na,na,na,filler,7/16/14,14:51,na71614-8,2,18,toma,toma,monkey,novel,familiar,L,toma,Y,MEexperimental,7/16/14,14:51,269671614-8,2,19,train,dofa,train,novel,familiar,R,train,Y,MEcontrol,7/16/14,14:51,242171614-8,2,20,apple,apple,wug,familiar,novel,L,apple,Y,MEcontrol,7/16/14,14:51,145971614-8,2,21,modi,shovel,modi,familiar,novel,L,shovel,N,MEexperimental,7/16/14,14:51,193771614-8,2,22,lion,lion,table,familiar,familiar,L,lion,Y,rec,7/16/14,14:51,238471614-8,2,23,fill1,na,na,na,na,na,na,na,filler,7/16/14,14:51,na71614-8,2,24,frog,frog,pifo,familiar,novel,L,frog,Y,MEcontrol,7/16/14,14:51,169271614-8,2,25,dax,cup,dax,familiar,novel,R,dax,Y,MEexperimental,7/16/14,14:51,293871614-8,2,26,car,car,fep,familiar,novel,L,car,Y,MEcontrol,7/16/14,14:51,161971614-8,2,27,cookie,baby,cookie,familiar,familiar,R,cookie,Y,rec,7/16/14,14:51,155971614-8,2,28,dog,book,dog,familiar,familiar,R,dog,Y,rec,7/16/14,14:51,186571614-9,2,1,bottle,bottle,bird,familiar,familiar,L,bottle,Y,rec,7/16/14,15:15,156571614-9,2,2,horse,clock,horse,familiar,familiar,R,horse,Y,rec,7/16/14,15:15,90971614-9,2,3,shoe,kreeb,shoe,novel,familiar,R,shoe,Y,MEcontrol,7/16/14,15:15,201271614-9,2,4,wug,wug,apple,novel,familiar,L,wug,Y,MEexperimental,7/16/14,15:15,2991371614-9,2,5,fill4,na,na,na,na,na,na,na,filler,7/16/14,15:15,na71614-9,2,6,hammer,hammer,sheep,familiar,familiar,L,hammer,Y,rec,7/16/14,15:15,113571614-9,2,7,shovel,modi,shovel,novel,familiar,R,shovel,Y,MEcontrol,7/16/14,15:15,124471614-9,2,8,carrot,lamp,carrot,familiar,familiar,R,carrot,Y,rec,7/16/14,15:15,157071614-9,2,9,fep,fep,car,novel,familiar,L,fep,Y,MEexperimental,7/16/14,15:15,815671614-9,2,10,dofa,train,dofa,familiar,novel,L,train,N,MEexperimental,7/16/14,15:15,226471614-9,2,11,fill3,na,na,na,na,na,na,na,filler,7/16/14,15:15,na71614-9,2,12,monkey,monkey,toma,familiar,novel,L,monkey,Y,MEcontrol,7/16/14,15:15,120671614-9,2,13,cat,cat,ball,familiar,familiar,L,cat,Y,rec,7/16/14,15:15,197071614-9,2,14,kreeb,shoe,kreeb,familiar,novel,R,kreeb,Y,MEexperimental,7/16/14,15:15,183671614-9,2,15,cup,dax,cup,novel,familiar,R,cup,Y,MEcontrol,7/16/14,15:15,114771614-9,2,16,pifo,pifo,frog,novel,familiar,L,pifo,Y,MEexperimental,7/16/14,15:15,296571614-9,2,17,fill2,na,na,na,na,na,na,na,filler,7/16/14,15:15,na71614-9,2,18,toma,toma,monkey,novel,familiar,L,toma,Y,MEexperimental,7/16/14,15:15,287471614-9,2,19,train,dofa,train,novel,familiar,R,train,Y,MEcontrol,7/16/14,15:15,169371614-9,2,20,apple,apple,wug,familiar,novel,L,apple,Y,MEcontrol,7/16/14,15:15,147871614-9,2,21,modi,shovel,modi,familiar,novel,R,modi,Y,MEexperimental,7/16/14,15:15,151171614-9,2,22,lion,lion,table,familiar,familiar,L,lion,Y,rec,7/16/14,15:15,150571614-9,2,23,fill1,na,na,na,na,na,na,na,filler,7/16/14,15:15,na71614-9,2,24,frog,frog,pifo,familiar,novel,L,frog,Y,MEcontrol,7/16/14,15:15,136571614-9,2,25,dax,cup,dax,familiar,novel,R,dax,Y,MEexperimental,7/16/14,15:15,127171614-9,2,26,car,car,fep,familiar,novel,L,car,Y,MEcontrol,7/16/14,15:15,200671614-9,2,27,cookie,baby,cookie,familiar,familiar,R,cookie,Y,rec,7/16/14,15:15,148871614-9,2,28,dog,book,dog,familiar,familiar,R,dog,Y,rec,7/16/14,15:15,245771614-10,2,1,bottle,bottle,bird,familiar,familiar,L,bottle,Y,rec,7/16/14,15:34,154171614-10,2,2,horse,clock,horse,familiar,familiar,R,horse,Y,rec,7/16/14,15:34,113071614-10,2,3,shoe,kreeb,shoe,novel,familiar,R,shoe,Y,MEcontrol,7/16/14,15:34,145471614-10,2,4,wug,wug,apple,novel,familiar,L,wug,Y,MEexperimental,7/16/14,15:34,176871614-10,2,5,fill4,na,na,na,na,na,na,na,filler,7/16/14,15:34,na71614-10,2,6,hammer,hammer,sheep,familiar,familiar,L,hammer,Y,rec,7/16/14,15:34,127971614-10,2,7,shovel,modi,shovel,novel,familiar,R,shovel,Y,MEcontrol,7/16/14,15:34,123071614-10,2,8,carrot,lamp,carrot,familiar,familiar,R,carrot,Y,rec,7/16/14,15:34,206971614-10,2,9,fep,fep,car,novel,familiar,L,fep,Y,MEexperimental,7/16/14,15:34,234971614-10,2,10,dofa,train,dofa,familiar,novel,R,dofa,Y,MEexperimental,7/16/14,15:34,328571614-10,2,11,fill3,na,na,na,na,na,na,na,filler,7/16/14,15:34,na71614-10,2,12,monkey,monkey,toma,familiar,novel,L,monkey,Y,MEcontrol,7/16/14,15:34,218971614-10,2,13,cat,cat,ball,familiar,familiar,L,cat,Y,rec,7/16/14,15:34,113071614-10,2,14,kreeb,shoe,kreeb,familiar,novel,R,kreeb,Y,MEexperimental,7/16/14,15:34,138671614-10,2,15,cup,dax,cup,novel,familiar,R,cup,Y,MEcontrol,7/16/14,15:34,141671614-10,2,16,pifo,pifo,frog,novel,familiar,L,pifo,Y,MEexperimental,7/16/14,15:34,149071614-10,2,18,toma,toma,monkey,novel,familiar,L,toma,Y,MEexperimental,7/16/14,15:34,237971614-10,2,19,train,dofa,train,novel,familiar,R,train,Y,MEcontrol,7/16/14,15:34,135371614-10,2,20,apple,apple,wug,familiar,novel,L,apple,Y,MEcontrol,7/16/14,15:34,135871614-10,2,21,modi,shovel,modi,familiar,novel,R,modi,Y,MEexperimental,7/16/14,15:34,155371614-10,2,23,fill1,na,na,na,na,na,na,na,filler,7/16/14,15:34,na71614-10,2,22,lion,lion,table,familiar,familiar,L,lion,Y,rec,7/16/14,15:34,119071614-10,2,24,frog,frog,pifo,familiar,novel,L,frog,Y,MEcontrol,7/16/14,15:34,177571614-10,2,25,dax,cup,dax,familiar,novel,R,dax,Y,MEexperimental,7/16/14,15:34,183271614-10,2,26,car,car,fep,familiar,novel,L,car,Y,MEcontrol,7/16/14,15:34,115071614-10,2,27,cookie,baby,cookie,familiar,familiar,R,cookie,Y,rec,7/16/14,15:34,228271614-10,2,28,dog,book,dog,familiar,familiar,R,dog,Y,rec,7/16/14,15:34,476471614-11,2,1,bottle,bottle,bird,familiar,familiar,L,bottle,Y,rec,7/16/14,15:40,969771614-11,2,2,horse,clock,horse,familiar,familiar,L,clock,N,rec,7/16/14,15:40,222471614-11,2,3,shoe,kreeb,shoe,novel,familiar,L,kreeb,N,MEcontrol,7/16/14,15:40,347671614-11,2,5,fill4,na,na,na,na,na,na,na,filler,7/16/14,15:40,na71614-11,2,4,wug,wug,apple,novel,familiar,R,apple,N,MEexperimental,7/16/14,15:40,54771614-11,2,6,hammer,hammer,sheep,familiar,familiar,L,hammer,Y,rec,7/16/14,15:40,93771614-11,2,7,shovel,modi,shovel,novel,familiar,R,shovel,Y,MEcontrol,7/16/14,15:40,461571614-11,2,8,carrot,lamp,carrot,familiar,familiar,R,carrot,Y,rec,7/16/14,15:40,620971614-11,2,9,fep,fep,car,novel,familiar,L,fep,Y,MEexperimental,7/16/14,15:40,850271614-11,2,10,dofa,train,dofa,familiar,novel,L,train,N,MEexperimental,7/16/14,15:40,445771614-11,2,11,fill3,na,na,na,na,na,na,na,filler,7/16/14,15:40,na71614-11,2,12,monkey,monkey,toma,familiar,novel,L,monkey,Y,MEcontrol,7/16/14,15:40,960471614-11,2,13,cat,cat,ball,familiar,familiar,L,cat,Y,rec,7/16/14,15:40,733271614-11,2,14,kreeb,shoe,kreeb,familiar,novel,L,shoe,N,MEexperimental,7/16/14,15:40,132571614-11,2,15,cup,dax,cup,novel,familiar,L,dax,N,MEcontrol,7/16/14,15:40,276571614-11,2,16,pifo,pifo,frog,novel,familiar,R,frog,N,MEexperimental,7/16/14,15:40,604971614-11,2,17,fill2,na,na,na,na,na,na,na,filler,7/16/14,15:40,na71614-11,2,18,toma,toma,monkey,novel,familiar,L,toma,Y,MEexperimental,7/16/14,15:40,1254571614-11,2,19,train,dofa,train,novel,familiar,R,train,Y,MEcontrol,7/16/14,15:40,242771614-11,2,20,apple,apple,wug,familiar,novel,L,apple,Y,MEcontrol,7/16/14,15:40,49671614-11,2,21,modi,shovel,modi,familiar,novel,L,shovel,N,MEexperimental,7/16/14,15:40,141471614-11,2,22,lion,lion,table,familiar,familiar,L,lion,Y,rec,7/16/14,15:40,145571614-11,2,23,fill1,na,na,na,na,na,na,na,filler,7/16/14,15:40,na71614-11,2,24,frog,frog,pifo,familiar,novel,L,frog,Y,MEcontrol,7/16/14,15:40,552971614-11,2,25,dax,cup,dax,familiar,novel,L,cup,N,MEexperimental,7/16/14,15:40,141671614-11,2,26,car,car,fep,familiar,novel,L,car,Y,MEcontrol,7/16/14,15:40,43671614-11,2,27,cookie,baby,cookie,familiar,familiar,R,cookie,Y,rec,7/16/14,15:40,1005171614-11,2,28,dog,book,dog,familiar,familiar,R,dog,Y,rec,7/16/14,15:40,359672014-1,2,1,bottle,bottle,bird,familiar,familiar,L,bottle,Y,rec,7/20/14,12:11,208272014-1,2,2,horse,clock,horse,familiar,familiar,R,horse,Y,rec,7/20/14,12:11,147472014-1,2,3,shoe,kreeb,shoe,novel,familiar,R,shoe,Y,MEcontrol,7/20/14,12:11,155772014-1,2,4,wug,wug,apple,novel,familiar,L,wug,Y,MEexperimental,7/20/14,12:11,234472014-1,2,5,fill4,na,na,na,na,na,na,na,filler,7/20/14,12:11,na72014-1,2,6,hammer,hammer,sheep,familiar,familiar,L,hammer,Y,rec,7/20/14,12:11,139072014-1,2,7,shovel,modi,shovel,novel,familiar,L,modi,N,MEcontrol,7/20/14,12:11,148572014-1,2,8,carrot,lamp,carrot,familiar,familiar,R,carrot,Y,rec,7/20/14,12:11,159172014-1,2,9,fep,fep,car,novel,familiar,L,fep,Y,MEexperimental,7/20/14,12:11,204572014-1,2,10,dofa,train,dofa,familiar,novel,R,dofa,Y,MEexperimental,7/20/14,12:11,224572014-1,2,11,fill3,na,na,na,na,na,na,na,filler,7/20/14,12:11,na72014-1,2,12,monkey,monkey,toma,familiar,novel,L,monkey,Y,MEcontrol,7/20/14,12:11,118572014-1,2,13,cat,cat,ball,familiar,familiar,L,cat,Y,rec,7/20/14,12:11,138372014-1,2,14,kreeb,shoe,kreeb,familiar,novel,R,kreeb,Y,MEexperimental,7/20/14,12:11,169872014-1,2,15,cup,dax,cup,novel,familiar,R,cup,Y,MEcontrol,7/20/14,12:11,121772014-1,2,16,pifo,pifo,frog,novel,familiar,L,pifo,Y,MEexperimental,7/20/14,12:11,186972014-1,2,17,fill2,na,na,na,na,na,na,na,filler,7/20/14,12:11,na72014-1,2,18,toma,toma,monkey,novel,familiar,L,toma,Y,MEexperimental,7/20/14,12:11,218272014-1,2,19,train,dofa,train,novel,familiar,R,train,Y,MEcontrol,7/20/14,12:11,225572014-1,2,20,apple,apple,wug,familiar,novel,L,apple,Y,MEcontrol,7/20/14,12:11,140772014-1,2,21,modi,shovel,modi,familiar,novel,R,modi,Y,MEexperimental,7/20/14,12:11,172472014-1,2,22,lion,lion,table,familiar,familiar,L,lion,Y,rec,7/20/14,12:11,179072014-1,2,23,fill1,na,na,na,na,na,na,na,filler,7/20/14,12:11,na72014-1,2,24,frog,frog,pifo,familiar,novel,L,frog,Y,MEcontrol,7/20/14,12:11,132772014-1,2,25,dax,cup,dax,familiar,novel,R,dax,Y,MEexperimental,7/20/14,12:11,215672014-1,2,26,car,car,fep,familiar,novel,L,car,Y,MEcontrol,7/20/14,12:11,116772014-1,2,27,cookie,baby,cookie,familiar,familiar,R,cookie,Y,rec,7/20/14,12:11,159372014-1,2,28,dog,book,dog,familiar,familiar,R,dog,Y,rec,7/20/14,12:11,168072014-2,2,1,bottle,bottle,bird,familiar,familiar,L,bottle,Y,rec,7/20/14,12:31,192972014-2,2,2,horse,clock,horse,familiar,familiar,R,horse,Y,rec,7/20/14,12:31,290172014-2,2,3,shoe,kreeb,shoe,novel,familiar,R,shoe,Y,MEcontrol,7/20/14,12:31,264272014-2,2,4,wug,wug,apple,novel,familiar,L,wug,Y,MEexperimental,7/20/14,12:31,766572014-2,2,5,fill4,na,na,na,na,na,na,na,filler,7/20/14,12:31,na72014-2,2,6,hammer,hammer,sheep,familiar,familiar,L,hammer,Y,rec,7/20/14,12:31,124472014-2,2,7,shovel,modi,shovel,novel,familiar,R,shovel,Y,MEcontrol,7/20/14,12:31,183572014-2,2,8,carrot,lamp,carrot,familiar,familiar,R,carrot,Y,rec,7/20/14,12:31,281672014-2,2,9,fep,fep,car,novel,familiar,L,fep,Y,MEexperimental,7/20/14,12:31,274472014-2,2,10,dofa,train,dofa,familiar,novel,R,dofa,Y,MEexperimental,7/20/14,12:31,246772014-2,2,11,fill3,na,na,na,na,na,na,na,filler,7/20/14,12:31,na72014-2,2,12,monkey,monkey,toma,familiar,novel,L,monkey,Y,MEcontrol,7/20/14,12:31,152772014-2,2,13,cat,cat,ball,familiar,familiar,L,cat,Y,rec,7/20/14,12:31,144972014-2,2,14,kreeb,shoe,kreeb,familiar,novel,R,kreeb,Y,MEexperimental,7/20/14,12:31,318072014-2,2,15,cup,dax,cup,novel,familiar,R,cup,Y,MEcontrol,7/20/14,12:31,199372014-2,2,16,pifo,pifo,frog,novel,familiar,L,pifo,Y,MEexperimental,7/20/14,12:31,335172014-2,2,17,fill2,na,na,na,na,na,na,na,filler,7/20/14,12:31,na72014-2,2,18,toma,toma,monkey,novel,familiar,L,toma,Y,MEexperimental,7/20/14,12:31,171072014-2,2,19,train,dofa,train,novel,familiar,R,train,Y,MEcontrol,7/20/14,12:31,193472014-2,2,20,apple,apple,wug,familiar,novel,L,apple,Y,MEcontrol,7/20/14,12:31,122172014-2,2,21,modi,shovel,modi,familiar,novel,R,modi,Y,MEexperimental,7/20/14,12:31,205572014-2,2,22,lion,lion,table,familiar,familiar,L,lion,Y,rec,7/20/14,12:31,130272014-2,2,23,fill1,na,na,na,na,na,na,na,filler,7/20/14,12:31,na72014-2,2,24,frog,frog,pifo,familiar,novel,L,frog,Y,MEcontrol,7/20/14,12:31,123172014-2,2,25,dax,cup,dax,familiar,novel,R,dax,Y,MEexperimental,7/20/14,12:31,199372014-2,2,26,car,car,fep,familiar,novel,L,car,Y,MEcontrol,7/20/14,12:31,114472014-2,2,27,cookie,baby,cookie,familiar,familiar,R,cookie,Y,rec,7/20/14,12:31,178272014-2,2,28,dog,book,dog,familiar,familiar,R,dog,Y,rec,7/20/14,12:31,134972014-3,2,1,bottle,bottle,bird,familiar,familiar,L,bottle,Y,rec,7/20/14,12:44,282172014-3,2,2,horse,clock,horse,familiar,familiar,R,horse,Y,rec,7/20/14,12:44,129672014-3,2,3,shoe,kreeb,shoe,novel,familiar,R,shoe,Y,MEcontrol,7/20/14,12:44,793872014-3,2,4,wug,wug,apple,novel,familiar,L,wug,Y,MEexperimental,7/20/14,12:44,1295472014-3,2,5,fill4,na,na,na,na,na,na,na,filler,7/20/14,12:44,na72014-3,2,6,hammer,hammer,sheep,familiar,familiar,L,hammer,Y,rec,7/20/14,12:44,1119572014-3,2,7,shovel,modi,shovel,novel,familiar,R,shovel,Y,MEcontrol,7/20/14,12:44,269672014-3,2,8,carrot,lamp,carrot,familiar,familiar,R,carrot,Y,rec,7/20/14,12:44,199072014-3,2,9,fep,fep,car,novel,familiar,L,fep,Y,MEexperimental,7/20/14,12:44,798572014-3,2,10,dofa,train,dofa,familiar,novel,R,dofa,Y,MEexperimental,7/20/14,12:44,675272014-3,2,11,fill3,na,na,na,na,na,na,na,filler,7/20/14,12:44,na72014-3,2,12,monkey,monkey,toma,familiar,novel,L,monkey,Y,MEcontrol,7/20/14,12:44,398672014-3,2,13,cat,cat,ball,familiar,familiar,L,cat,Y,rec,7/20/14,12:44,167572014-3,2,14,kreeb,shoe,kreeb,familiar,novel,R,kreeb,Y,MEexperimental,7/20/14,12:44,573072014-3,2,15,cup,dax,cup,novel,familiar,R,cup,Y,MEcontrol,7/20/14,12:44,831072014-3,2,16,pifo,pifo,frog,novel,familiar,R,frog,N,MEexperimental,7/20/14,12:44,663272014-3,2,17,fill2,na,na,na,na,na,na,na,filler,7/20/14,12:44,na72014-3,2,18,toma,toma,monkey,novel,familiar,L,toma,Y,MEexperimental,7/20/14,12:44,1661972014-3,2,19,train,dofa,train,novel,familiar,R,train,Y,MEcontrol,7/20/14,12:44,546272014-3,2,20,apple,apple,wug,familiar,novel,L,apple,Y,MEcontrol,7/20/14,12:44,417972014-3,2,21,modi,shovel,modi,familiar,novel,R,modi,Y,MEexperimental,7/20/14,12:44,639972014-3,2,22,lion,lion,table,familiar,familiar,L,lion,Y,rec,7/20/14,12:44,186672014-3,2,23,fill1,na,na,na,na,na,na,na,filler,7/20/14,12:44,na72014-3,2,24,frog,frog,pifo,familiar,novel,L,frog,Y,MEcontrol,7/20/14,12:44,124872014-3,2,25,dax,cup,dax,familiar,novel,L,cup,N,MEexperimental,7/20/14,12:44,1063972014-3,2,26,car,car,fep,familiar,novel,L,car,Y,MEcontrol,7/20/14,12:44,121372014-3,2,27,cookie,baby,cookie,familiar,familiar,R,cookie,Y,rec,7/20/14,12:44,185072014-3,2,28,dog,book,dog,familiar,familiar,R,dog,Y,rec,7/20/14,12:44,732872014-4,1,1,dog,dog,book,familiar,familiar,L,dog,Y,rec,7/20/14,13:02,261072014-4,1,2,cookie,cookie,baby,familiar,familiar,L,cookie,Y,rec,7/20/14,13:02,169472014-4,1,3,car,fep,car,novel,familiar,R,car,Y,MEcontrol,7/20/14,13:02,170872014-4,1,4,dax,dax,cup,novel,familiar,L,dax,Y,MEexperimental,7/20/14,13:02,370972014-4,1,5,frog,pifo,frog,novel,familiar,R,frog,Y,MEcontrol,7/20/14,13:02,152572014-4,1,6,fill1,na,na,na,na,na,na,na,filler,7/20/14,13:02,na72014-4,1,7,lion,table,lion,familiar,familiar,R,lion,Y,rec,7/20/14,13:02,182372014-4,1,8,modi,modi,shovel,novel,familiar,L,modi,Y,MEexperimental,7/20/14,13:02,243372014-4,1,9,apple,wug,apple,novel,familiar,R,apple,Y,MEcontrol,7/20/14,13:02,174272014-4,1,10,train,train,dofa,familiar,novel,L,train,Y,MEcontrol,7/20/14,13:02,159972014-4,1,11,toma,monkey,toma,familiar,novel,R,toma,Y,MEexperimental,7/20/14,13:02,285972014-4,1,12,fill2,na,na,na,na,na,na,na,filler,7/20/14,13:02,na72014-4,1,13,pifo,frog,pifo,familiar,novel,R,pifo,Y,MEexperimental,7/20/14,13:02,211872014-4,1,14,cup,cup,dax,familiar,novel,L,cup,Y,MEcontrol,7/20/14,13:02,153672014-4,1,15,kreeb,kreeb,shoe,novel,familiar,L,kreeb,Y,MEexperimental,7/20/14,13:02,220372014-4,1,16,cat,ball,cat,familiar,familiar,R,cat,Y,rec,7/20/14,13:02,184472014-4,1,17,monkey,toma,monkey,novel,familiar,R,monkey,Y,MEcontrol,7/20/14,13:02,150072014-4,1,18,fill3,na,na,na,na,na,na,na,filler,7/20/14,13:02,na72014-4,1,19,dofa,dofa,train,novel,familiar,L,dofa,Y,MEexperimental,7/20/14,13:02,232072014-4,1,20,fep,car,fep,familiar,novel,R,fep,Y,MEexperimental,7/20/14,13:02,189372014-4,1,21,carrot,carrot,lamp,familiar,familiar,L,carrot,Y,rec,7/20/14,13:02,178972014-4,1,22,shovel,shovel,modi,familiar,novel,L,shovel,Y,MEcontrol,7/20/14,13:02,177572014-4,1,23,hammer,sheep,hammer,familiar,familiar,R,hammer,Y,rec,7/20/14,13:02,211272014-4,1,24,fill4,na,na,na,na,na,na,na,filler,7/20/14,13:02,na72014-4,1,25,wug,apple,wug,familiar,novel,R,wug,Y,MEexperimental,7/20/14,13:02,279072014-4,1,26,shoe,shoe,kreeb,familiar,novel,L,shoe,Y,MEcontrol,7/20/14,13:02,185372014-4,1,27,horse,horse,clock,familiar,familiar,L,horse,Y,rec,7/20/14,13:02,170972014-4,1,28,bottle,bird,bottle,familiar,familiar,R,bottle,Y,rec,7/20/14,13:02,287972014-5,1,1,dog,dog,book,familiar,familiar,L,dog,Y,rec,7/20/14,13:23,224972014-5,1,2,cookie,cookie,baby,familiar,familiar,L,cookie,Y,rec,7/20/14,13:23,148372014-5,1,3,car,fep,car,novel,familiar,R,car,Y,MEcontrol,7/20/14,13:23,373572014-5,1,4,dax,dax,cup,novel,familiar,L,dax,Y,MEexperimental,7/20/14,13:23,855672014-5,1,5,frog,pifo,frog,novel,familiar,R,frog,Y,MEcontrol,7/20/14,13:23,171772014-5,1,6,fill1,na,na,na,na,na,na,na,filler,7/20/14,13:23,na72014-5,1,7,lion,table,lion,familiar,familiar,R,lion,Y,rec,7/20/14,13:23,239972014-5,1,8,modi,modi,shovel,novel,familiar,L,modi,Y,MEexperimental,7/20/14,13:23,204672014-5,1,9,apple,wug,apple,novel,familiar,R,apple,Y,MEcontrol,7/20/14,13:23,146772014-5,1,10,train,train,dofa,familiar,novel,L,train,Y,MEcontrol,7/20/14,13:23,138872014-5,1,11,toma,monkey,toma,familiar,novel,R,toma,Y,MEexperimental,7/20/14,13:23,276372014-5,1,12,fill2,na,na,na,na,na,na,na,filler,7/20/14,13:23,na72014-5,1,13,pifo,frog,pifo,familiar,novel,R,pifo,Y,MEexperimental,7/20/14,13:23,179072014-5,1,14,cup,cup,dax,familiar,novel,L,cup,Y,MEcontrol,7/20/14,13:23,125572014-5,1,15,kreeb,kreeb,shoe,novel,familiar,L,kreeb,Y,MEexperimental,7/20/14,13:23,197772014-5,1,16,cat,ball,cat,familiar,familiar,R,cat,Y,rec,7/20/14,13:23,194172014-5,1,17,monkey,toma,monkey,novel,familiar,R,monkey,Y,MEcontrol,7/20/14,13:23,167872014-5,1,18,fill3,na,na,na,na,na,na,na,filler,7/20/14,13:23,na72014-5,1,19,dofa,dofa,train,novel,familiar,L,dofa,Y,MEexperimental,7/20/14,13:23,292972014-5,1,20,fep,car,fep,familiar,novel,R,fep,Y,MEexperimental,7/20/14,13:23,163472014-5,1,21,carrot,carrot,lamp,familiar,familiar,L,carrot,Y,rec,7/20/14,13:23,198272014-5,1,22,shovel,shovel,modi,familiar,novel,L,shovel,Y,MEcontrol,7/20/14,13:23,178872014-5,1,23,hammer,sheep,hammer,familiar,familiar,R,hammer,Y,rec,7/20/14,13:23,284272014-5,1,24,fill4,na,na,na,na,na,na,na,filler,7/20/14,13:23,na72014-5,1,25,wug,apple,wug,familiar,novel,R,wug,Y,MEexperimental,7/20/14,13:23,224172014-5,1,26,shoe,shoe,kreeb,familiar,novel,L,shoe,Y,MEcontrol,7/20/14,13:23,222472014-5,1,27,horse,horse,clock,familiar,familiar,L,horse,Y,rec,7/20/14,13:23,176772014-5,1,28,bottle,bird,bottle,familiar,familiar,R,bottle,Y,rec,7/20/14,13:23,142272014-6,2,1,bottle,bottle,bird,familiar,familiar,L,bottle,Y,rec,7/20/14,14:28,375972014-6,2,2,horse,clock,horse,familiar,familiar,R,horse,Y,rec,7/20/14,14:28,275772014-6,2,3,shoe,kreeb,shoe,novel,familiar,R,shoe,Y,MEcontrol,7/20/14,14:28,215872014-6,2,4,wug,wug,apple,novel,familiar,L,wug,Y,MEexperimental,7/20/14,14:28,292272014-6,2,5,fill4,na,na,na,na,na,na,na,filler,7/20/14,14:28,na72014-6,2,6,hammer,hammer,sheep,familiar,familiar,L,hammer,Y,rec,7/20/14,14:28,166672014-6,2,7,shovel,modi,shovel,novel,familiar,L,modi,N,MEcontrol,7/20/14,14:28,75272014-6,2,8,carrot,lamp,carrot,familiar,familiar,R,carrot,Y,rec,7/20/14,14:28,165972014-6,2,9,fep,fep,car,novel,familiar,L,fep,Y,MEexperimental,7/20/14,14:28,243572014-6,2,10,dofa,train,dofa,familiar,novel,R,dofa,Y,MEexperimental,7/20/14,14:28,173472014-6,2,11,fill3,na,na,na,na,na,na,na,filler,7/20/14,14:28,na72014-6,2,12,monkey,monkey,toma,familiar,novel,L,monkey,Y,MEcontrol,7/20/14,14:28,119172014-6,2,13,cat,cat,ball,familiar,familiar,L,cat,Y,rec,7/20/14,14:28,154172014-6,2,14,kreeb,shoe,kreeb,familiar,novel,R,kreeb,Y,MEexperimental,7/20/14,14:28,329572014-6,2,15,cup,dax,cup,novel,familiar,R,cup,Y,MEcontrol,7/20/14,14:28,123472014-6,2,16,pifo,pifo,frog,novel,familiar,L,pifo,Y,MEexperimental,7/20/14,14:28,158672014-6,2,17,fill2,na,na,na,na,na,na,na,filler,7/20/14,14:28,na72014-6,2,18,toma,toma,monkey,novel,familiar,L,toma,Y,MEexperimental,7/20/14,14:28,369772014-6,2,19,train,dofa,train,novel,familiar,R,train,Y,MEcontrol,7/20/14,14:28,331872014-6,2,20,apple,apple,wug,familiar,novel,L,apple,Y,MEcontrol,7/20/14,14:28,222172014-6,2,21,modi,shovel,modi,familiar,novel,R,modi,Y,MEexperimental,7/20/14,14:28,167472014-6,2,22,lion,lion,table,familiar,familiar,L,lion,Y,rec,7/20/14,14:28,160572014-6,2,23,fill1,na,na,na,na,na,na,na,filler,7/20/14,14:28,na72014-6,2,24,frog,frog,pifo,familiar,novel,L,frog,Y,MEcontrol,7/20/14,14:28,283172014-6,2,25,dax,cup,dax,familiar,novel,R,dax,Y,MEexperimental,7/20/14,14:28,172572014-6,2,26,car,car,fep,familiar,novel,L,car,Y,MEcontrol,7/20/14,14:28,117172014-6,2,27,cookie,baby,cookie,familiar,familiar,R,cookie,Y,rec,7/20/14,14:28,132672014-6,2,28,dog,book,dog,familiar,familiar,R,dog,Y,rec,7/20/14,14:28,195072014-7,2,1,bottle,bottle,bird,familiar,familiar,L,bottle,Y,rec,7/20/14,14:54,642372014-7,2,2,horse,clock,horse,familiar,familiar,R,horse,Y,rec,7/20/14,14:54,82172014-7,2,3,shoe,kreeb,shoe,novel,familiar,L,kreeb,N,MEcontrol,7/20/14,14:54,89772014-7,2,4,wug,wug,apple,novel,familiar,L,wug,Y,MEexperimental,7/20/14,14:54,352272014-7,2,5,fill4,na,na,na,na,na,na,na,filler,7/20/14,14:54,na72014-7,2,6,hammer,hammer,sheep,familiar,familiar,L,hammer,Y,rec,7/20/14,14:54,227872014-7,2,7,shovel,modi,shovel,novel,familiar,L,modi,N,MEcontrol,7/20/14,14:54,216972014-7,2,8,carrot,lamp,carrot,familiar,familiar,R,carrot,Y,rec,7/20/14,14:54,234372014-7,2,9,fep,fep,car,novel,familiar,L,fep,Y,MEexperimental,7/20/14,14:54,289072014-7,2,10,dofa,train,dofa,familiar,novel,R,dofa,Y,MEexperimental,7/20/14,14:54,240272014-7,2,11,fill3,na,na,na,na,na,na,na,filler,7/20/14,14:54,na72014-7,2,12,monkey,monkey,toma,familiar,novel,L,monkey,Y,MEcontrol,7/20/14,14:54,297372014-7,2,13,cat,cat,ball,familiar,familiar,R,ball,N,rec,7/20/14,14:54,722572014-7,2,14,kreeb,shoe,kreeb,familiar,novel,L,shoe,N,MEexperimental,7/20/14,14:54,50872014-7,2,15,cup,dax,cup,novel,familiar,R,cup,Y,MEcontrol,7/20/14,14:54,279772014-7,2,16,pifo,pifo,frog,novel,familiar,R,frog,N,MEexperimental,7/20/14,14:54,440972014-7,2,17,fill2,na,na,na,na,na,na,na,filler,7/20/14,14:54,na72014-7,2,1,bottle,bottle,bird,familiar,familiar,L,bottle,Y,rec,7/20/14,14:58,180672014-7,2,2,horse,clock,horse,familiar,familiar,R,horse,Y,rec,7/20/14,14:58,135572014-7,2,3,shoe,kreeb,shoe,novel,familiar,L,kreeb,N,MEcontrol,7/20/14,14:58,124172014-7,2,5,fill4,na,na,na,na,na,na,na,filler,7/20/14,14:58,na72014-7,2,4,wug,wug,apple,novel,familiar,L,wug,Y,MEexperimental,7/20/14,14:58,153472014-7,2,6,hammer,hammer,sheep,familiar,familiar,L,hammer,Y,rec,7/20/14,14:58,219672014-7,2,7,shovel,modi,shovel,novel,familiar,R,shovel,Y,MEcontrol,7/20/14,14:58,124472014-7,2,8,carrot,lamp,carrot,familiar,familiar,R,carrot,Y,rec,7/20/14,14:58,192372014-7,2,9,fep,fep,car,novel,familiar,L,fep,Y,MEexperimental,7/20/14,14:58,1015672014-7,2,10,dofa,train,dofa,familiar,novel,R,dofa,Y,MEexperimental,7/20/14,14:58,229072014-7,2,11,fill3,na,na,na,na,na,na,na,filler,7/20/14,14:58,na72014-7,2,12,monkey,monkey,toma,familiar,novel,L,monkey,Y,MEcontrol,7/20/14,14:58,125872014-7,2,13,cat,cat,ball,familiar,familiar,L,cat,Y,rec,7/20/14,14:58,195372014-7,2,14,kreeb,shoe,kreeb,familiar,novel,R,kreeb,Y,MEexperimental,7/20/14,14:58,968872014-7,2,15,cup,dax,cup,novel,familiar,R,cup,Y,MEcontrol,7/20/14,14:58,286772014-7,2,16,pifo,pifo,frog,novel,familiar,L,pifo,Y,MEexperimental,7/20/14,14:58,357072014-7,2,17,fill2,na,na,na,na,na,na,na,filler,7/20/14,14:58,na72014-7,2,18,toma,toma,monkey,novel,familiar,R,monkey,N,MEexperimental,7/20/14,14:58,2823172014-7,2,19,train,dofa,train,novel,familiar,R,train,Y,MEcontrol,7/20/14,14:58,238172014-7,2,20,apple,apple,wug,familiar,novel,L,apple,Y,MEcontrol,7/20/14,14:58,471472014-7,2,21,modi,shovel,modi,familiar,novel,L,shovel,N,MEexperimental,7/20/14,14:58,412272014-7,2,22,lion,lion,table,familiar,familiar,L,lion,Y,rec,7/20/14,14:58,224872014-7,2,23,fill1,na,na,na,na,na,na,na,filler,7/20/14,14:58,na72014-7,2,24,frog,frog,pifo,familiar,novel,L,frog,Y,MEcontrol,7/20/14,14:58,165772014-7,2,25,dax,cup,dax,familiar,novel,R,dax,Y,MEexperimental,7/20/14,14:58,863672014-7,2,26,car,car,fep,familiar,novel,R,fep,N,MEcontrol,7/20/14,14:58,77272014-7,2,27,cookie,baby,cookie,familiar,familiar,R,cookie,Y,rec,7/20/14,14:58,181472014-7,2,28,dog,book,dog,familiar,familiar,R,dog,Y,rec,7/20/14,14:58,159872014-8,2,1,bottle,bottle,bird,familiar,familiar,L,bottle,Y,rec,7/20/14,15:36,306272014-8,2,2,horse,clock,horse,familiar,familiar,R,horse,Y,rec,7/20/14,15:36,131772014-8,2,3,shoe,kreeb,shoe,novel,familiar,R,shoe,Y,MEcontrol,7/20/14,15:36,131672014-8,2,4,wug,wug,apple,novel,familiar,L,wug,Y,MEexperimental,7/20/14,15:36,355172014-8,2,5,fill4,na,na,na,na,na,na,na,filler,7/20/14,15:36,na72014-8,2,6,hammer,hammer,sheep,familiar,familiar,L,hammer,Y,rec,7/20/14,15:36,135272014-8,2,7,shovel,modi,shovel,novel,familiar,R,shovel,Y,MEcontrol,7/20/14,15:36,164972014-8,2,8,carrot,lamp,carrot,familiar,familiar,R,carrot,Y,rec,7/20/14,15:36,207672014-8,2,9,fep,fep,car,novel,familiar,L,fep,Y,MEexperimental,7/20/14,15:36,218072014-8,2,10,dofa,train,dofa,familiar,novel,R,dofa,Y,MEexperimental,7/20/14,15:36,235972014-8,2,11,fill3,na,na,na,na,na,na,na,filler,7/20/14,15:36,na72014-8,2,12,monkey,monkey,toma,familiar,novel,R,toma,N,MEcontrol,7/20/14,15:36,213672014-8,2,13,cat,cat,ball,familiar,familiar,L,cat,Y,rec,7/20/14,15:36,121572014-8,2,14,kreeb,shoe,kreeb,familiar,novel,R,kreeb,Y,MEexperimental,7/20/14,15:36,402072014-8,2,15,cup,dax,cup,novel,familiar,R,cup,Y,MEcontrol,7/20/14,15:36,180372014-8,2,16,pifo,pifo,frog,novel,familiar,L,pifo,Y,MEexperimental,7/20/14,15:36,1347572014-8,2,17,fill2,na,na,na,na,na,na,na,filler,7/20/14,15:36,na72014-8,2,18,toma,toma,monkey,novel,familiar,L,toma,Y,MEexperimental,7/20/14,15:36,213572014-8,2,19,train,dofa,train,novel,familiar,R,train,Y,MEcontrol,7/20/14,15:36,194072014-8,2,20,apple,apple,wug,familiar,novel,L,apple,Y,MEcontrol,7/20/14,15:36,139872014-8,2,21,modi,shovel,modi,familiar,novel,R,modi,Y,MEexperimental,7/20/14,15:36,192172014-8,2,22,lion,lion,table,familiar,familiar,L,lion,Y,rec,7/20/14,15:36,255072014-8,2,23,fill1,na,na,na,na,na,na,na,filler,7/20/14,15:36,na72014-8,2,24,frog,frog,pifo,familiar,novel,L,frog,Y,MEcontrol,7/20/14,15:36,114472014-8,2,25,dax,cup,dax,familiar,novel,R,dax,Y,MEexperimental,7/20/14,15:36,276172014-8,2,26,car,car,fep,familiar,novel,L,car,Y,MEcontrol,7/20/14,15:36,111872014-8,2,27,cookie,baby,cookie,familiar,familiar,R,cookie,Y,rec,7/20/14,15:36,157972014-8,2,28,dog,book,dog,familiar,familiar,R,dog,Y,rec,7/20/14,15:36,173272214-1B,1,1,dog,dog,book,familiar,familiar,L,dog,Y,rec,7/22/14,10:54,506672214-1B,1,2,cookie,cookie,baby,familiar,familiar,L,cookie,Y,rec,7/22/14,10:54,143572214-1B,1,3,car,fep,car,novel,familiar,R,car,Y,MEcontrol,7/22/14,10:54,166972214-1B,1,4,dax,dax,cup,novel,familiar,L,dax,Y,MEexperimental,7/22/14,10:54,229572214-1B,1,5,frog,pifo,frog,novel,familiar,R,frog,Y,MEcontrol,7/22/14,10:54,157572214-1B,1,6,fill1,na,na,na,na,na,na,na,filler,7/22/14,10:54,na72214-1B,1,7,lion,table,lion,familiar,familiar,R,lion,Y,rec,7/22/14,10:54,226672214-1B,1,8,modi,modi,shovel,novel,familiar,L,modi,Y,MEexperimental,7/22/14,10:54,253972214-1B,1,9,apple,wug,apple,novel,familiar,R,apple,Y,MEcontrol,7/22/14,10:54,224772214-1B,1,10,train,train,dofa,familiar,novel,L,train,Y,MEcontrol,7/22/14,10:54,140272214-1B,1,11,toma,monkey,toma,familiar,novel,R,toma,Y,MEexperimental,7/22/14,10:54,169572214-1B,1,12,fill2,na,na,na,na,na,na,na,filler,7/22/14,10:54,na72214-1B,1,13,pifo,frog,pifo,familiar,novel,R,pifo,Y,MEexperimental,7/22/14,10:54,249772214-1B,1,14,cup,cup,dax,familiar,novel,R,dax,N,MEcontrol,7/22/14,10:54,185772214-1B,1,15,kreeb,kreeb,shoe,novel,familiar,L,kreeb,Y,MEexperimental,7/22/14,10:54,129172214-1B,1,16,cat,ball,cat,familiar,familiar,R,cat,Y,rec,7/22/14,10:54,190872214-1B,1,18,fill3,na,na,na,na,na,na,na,filler,7/22/14,10:54,na72214-1B,1,17,monkey,toma,monkey,novel,familiar,R,monkey,Y,MEcontrol,7/22/14,10:54,153572214-1B,1,19,dofa,dofa,train,novel,familiar,L,dofa,Y,MEexperimental,7/22/14,10:54,146772214-1B,1,20,fep,car,fep,familiar,novel,L,car,N,MEexperimental,7/22/14,10:54,174672214-1B,1,21,carrot,carrot,lamp,familiar,familiar,L,carrot,Y,rec,7/22/14,10:54,219572214-1B,1,22,shovel,shovel,modi,familiar,novel,L,shovel,Y,MEcontrol,7/22/14,10:54,989172214-1B,1,23,hammer,sheep,hammer,familiar,familiar,R,hammer,Y,rec,7/22/14,10:54,147272214-1B,1,24,fill4,na,na,na,na,na,na,na,filler,7/22/14,10:54,na72214-1B,1,25,wug,apple,wug,familiar,novel,L,apple,N,MEexperimental,7/22/14,10:54,159072214-1B,1,26,shoe,shoe,kreeb,familiar,novel,L,shoe,Y,MEcontrol,7/22/14,10:54,230672214-1B,1,27,horse,horse,clock,familiar,familiar,L,horse,Y,rec,7/22/14,10:54,184172214-1B,1,28,bottle,bird,bottle,familiar,familiar,R,bottle,Y,rec,7/22/14,10:54,142572214-2B2,1,1,dog,dog,book,familiar,familiar,L,dog,Y,rec,7/22/14,11:23,2367372214-2B2,1,2,cookie,cookie,baby,familiar,familiar,L,cookie,Y,rec,7/22/14,11:23,2124072214-2B2,1,3,car,fep,car,novel,familiar,R,car,Y,MEcontrol,7/22/14,11:23,557472214-2B2,1,4,dax,dax,cup,novel,familiar,L,dax,Y,MEexperimental,7/22/14,11:23,4715772214-2B2,1,5,frog,pifo,frog,novel,familiar,R,frog,Y,MEcontrol,7/22/14,11:23,352772214-2B2,1,6,fill1,na,na,na,na,na,na,na,filler,7/22/14,11:23,na72214-2B2,1,7,lion,table,lion,familiar,familiar,R,lion,Y,rec,7/22/14,11:23,200872214-2B2,1,8,modi,modi,shovel,novel,familiar,L,modi,Y,MEexperimental,7/22/14,11:23,577172214-2B2,1,9,apple,wug,apple,novel,familiar,R,apple,Y,MEcontrol,7/22/14,11:23,169272214-2B2,1,10,train,train,dofa,familiar,novel,L,train,Y,MEcontrol,7/22/14,11:23,147172214-2B2,1,12,fill2,na,na,na,na,na,na,na,filler,7/22/14,11:23,na72214-2B2,1,11,toma,monkey,toma,familiar,novel,R,toma,Y,MEexperimental,7/22/14,11:23,176972214-2B2,1,13,pifo,frog,pifo,familiar,novel,R,pifo,Y,MEexperimental,7/22/14,11:23,326872214-2B2,1,14,cup,cup,dax,familiar,novel,L,cup,Y,MEcontrol,7/22/14,11:23,167272214-2B2,1,15,kreeb,kreeb,shoe,novel,familiar,L,kreeb,Y,MEexperimental,7/22/14,11:23,2116872214-2B2,1,16,cat,ball,cat,familiar,familiar,R,cat,Y,rec,7/22/14,11:23,151172214-2B2,1,17,monkey,toma,monkey,novel,familiar,R,monkey,Y,MEcontrol,7/22/14,11:23,196072214-2B2,1,18,fill3,na,na,na,na,na,na,na,filler,7/22/14,11:23,na72214-2B2,1,19,dofa,dofa,train,novel,familiar,L,dofa,Y,MEexperimental,7/22/14,11:23,690072214-2B2,1,20,fep,car,fep,familiar,novel,R,fep,Y,MEexperimental,7/22/14,11:23,503872214-2B2,1,21,carrot,carrot,lamp,familiar,familiar,L,carrot,Y,rec,7/22/14,11:23,216572214-2B2,1,22,shovel,shovel,modi,familiar,novel,L,shovel,Y,MEcontrol,7/22/14,11:23,239472214-2B2,1,23,hammer,sheep,hammer,familiar,familiar,R,hammer,Y,rec,7/22/14,11:23,1100372214-2B2,1,24,fill4,na,na,na,na,na,na,na,filler,7/22/14,11:23,na72214-2B2,1,25,wug,apple,wug,familiar,novel,R,wug,Y,MEexperimental,7/22/14,11:23,527672214-2B2,1,26,shoe,shoe,kreeb,familiar,novel,L,shoe,Y,MEcontrol,7/22/14,11:23,204972214-2B2,1,27,horse,horse,clock,familiar,familiar,L,horse,Y,rec,7/22/14,11:23,119172214-2B2,1,28,bottle,bird,bottle,familiar,familiar,R,bottle,Y,rec,7/22/14,11:23,168272214-3B,2,1,bottle,bottle,bird,familiar,familiar,L,bottle,Y,rec,7/22/14,11:51,559272214-3B,2,2,horse,clock,horse,familiar,familiar,R,horse,Y,rec,7/22/14,11:51,146972214-3B,2,3,shoe,kreeb,shoe,novel,familiar,R,shoe,Y,MEcontrol,7/22/14,11:51,172972214-3B,2,4,wug,wug,apple,novel,familiar,R,apple,N,MEexperimental,7/22/14,11:51,230472214-3B,2,5,fill4,na,na,na,na,na,na,na,filler,7/22/14,11:51,na72214-3B,2,6,hammer,hammer,sheep,familiar,familiar,L,hammer,Y,rec,7/22/14,11:51,160072214-3B,2,7,shovel,modi,shovel,novel,familiar,R,shovel,Y,MEcontrol,7/22/14,11:51,165872214-3B,2,8,carrot,lamp,carrot,familiar,familiar,R,carrot,Y,rec,7/22/14,11:51,163472214-3B,2,9,fep,fep,car,novel,familiar,R,car,N,MEexperimental,7/22/14,11:51,181172214-3B,2,10,dofa,train,dofa,familiar,novel,L,train,N,MEexperimental,7/22/14,11:51,283172214-3B,2,11,fill3,na,na,na,na,na,na,na,filler,7/22/14,11:51,na72214-3B,2,12,monkey,monkey,toma,familiar,novel,L,monkey,Y,MEcontrol,7/22/14,11:51,161472214-3B,2,13,cat,cat,ball,familiar,familiar,L,cat,Y,rec,7/22/14,11:51,140472214-3B,2,14,kreeb,shoe,kreeb,familiar,novel,R,kreeb,Y,MEexperimental,7/22/14,11:51,315972214-3B,2,15,cup,dax,cup,novel,familiar,R,cup,Y,MEcontrol,7/22/14,11:51,217272214-3B,2,16,pifo,pifo,frog,novel,familiar,R,frog,N,MEexperimental,7/22/14,11:51,175672214-3B,2,17,fill2,na,na,na,na,na,na,na,filler,7/22/14,11:51,na72214-3B,2,18,toma,toma,monkey,novel,familiar,R,monkey,N,MEexperimental,7/22/14,11:51,231672214-3B,2,19,train,dofa,train,novel,familiar,R,train,Y,MEcontrol,7/22/14,11:51,277872214-3B,2,20,apple,apple,wug,familiar,novel,L,apple,Y,MEcontrol,7/22/14,11:51,238072214-3B,2,21,modi,shovel,modi,familiar,novel,R,modi,Y,MEexperimental,7/22/14,11:51,258672214-3B,2,22,lion,lion,table,familiar,familiar,L,lion,Y,rec,7/22/14,11:51,167672214-3B,2,23,fill1,na,na,na,na,na,na,na,filler,7/22/14,11:51,na